"","block.number","block.type","trial.number","practice",".thisRepN",".thisTrialN",".thisN",".thisIndex","thisRow.t","notes","RT","clicked.reward","consecutive.distance","distance.to.top.10.","total","mean","Participant.Nummer","Leeftijd","Gender","schrijfhand","X","participant_number"
"1",1,"total",0,1,0,0,0,0,NA,NA,1.5740101999836,62,0.11,0.11,62,62,10,18,"vrouwelijk","rechts",NA,"10"
"2",1,"total",1,1,0,1,1,1,NA,NA,4.40747550001834,61,0.15556349186104,0.15556349186104,123,61,10,18,"vrouwelijk","rechts",NA,"10"
"3",1,"total",2,1,0,2,2,2,NA,NA,0.969861499965191,70,0.11,0,193,64,10,18,"vrouwelijk","rechts",NA,"10"
"4",1,"total",3,1,0,3,3,3,NA,NA,0.579390999977477,77,0.11,0,270,67,10,18,"vrouwelijk","rechts",NA,"10"
"5",1,"total",4,1,0,4,4,4,NA,NA,0.218234299914911,70,0.11,0.11,340,68,10,18,"vrouwelijk","rechts",NA,"10"
"6",1,"total",5,1,0,5,5,5,NA,NA,0.304304599994794,75,0.11,0.15556349186104,415,69,10,18,"vrouwelijk","rechts",NA,"10"
"7",1,"total",6,1,0,6,6,6,NA,NA,0.199218799942173,80,0.11,0,495,70,10,18,"vrouwelijk","rechts",NA,"10"
"8",1,"total",7,1,0,7,7,7,NA,NA,0.4329996999586,85,0.15556349186104,0,580,72,10,18,"vrouwelijk","rechts",NA,"10"
"9",1,"total",8,1,0,8,8,8,NA,NA,0.289873400004581,86,0.11,0,666,74,10,18,"vrouwelijk","rechts",NA,"10"
"10",1,"total",9,1,0,9,9,9,NA,NA,0.231717800023034,77,0.22,0.11,743,74,10,18,"vrouwelijk","rechts",NA,"10"
"11",1,"total",10,1,0,10,10,10,NA,NA,0.242277499986812,81,0.33,0.11,824,74,10,18,"vrouwelijk","rechts",NA,"10"
"12",1,"total",11,1,0,11,11,11,NA,NA,0.186546999961138,78,0.11,0.15556349186104,902,75,10,18,"vrouwelijk","rechts",NA,"10"
"13",1,"total",12,1,0,12,12,12,NA,NA,1.10474209999666,71,0.15556349186104,0.22,973,74,10,18,"vrouwelijk","rechts",NA,"10"
"14",1,"total",13,1,0,13,13,13,NA,NA,0.393835700000636,89,0.245967477524977,0,1062,75,10,18,"vrouwelijk","rechts",NA,"10"
"15",1,"total",14,1,0,14,14,14,NA,NA,0.745635699946433,90,0.11,0,1152,76,10,18,"vrouwelijk","rechts",NA,"10"
"16",1,"total",15,1,0,15,15,15,NA,NA,0.560659399954602,83,0.11,0.11,1235,77,10,18,"vrouwelijk","rechts",NA,"10"
"17",1,"total",16,1,0,16,16,16,NA,NA,1.30181229999289,90,0.15556349186104,0,1325,77,10,18,"vrouwelijk","rechts",NA,"10"
"18",1,"total",17,1,0,17,17,17,NA,NA,0.550970099982806,87,0.11,0.11,1412,78,10,18,"vrouwelijk","rechts",NA,"10"
"19",1,"total",18,1,0,18,18,18,NA,NA,0.858576100086793,78,0.11,0.22,1490,78,10,18,"vrouwelijk","rechts",NA,"10"
"20",1,"total",19,1,0,19,19,19,NA,NA,1.11107009998523,85,0.33,0.11,1575,78,10,18,"vrouwelijk","rechts",NA,"10"
"21",2,"mean",0,0,0,20,20,20,NA,NA,2.39890949998517,65,0.22,0.22,65,65,10,18,"vrouwelijk","rechts",NA,"10"
"22",2,"mean",1,0,0,21,21,21,NA,NA,1.35514280002099,68,0.11,0,133,66,10,18,"vrouwelijk","rechts",NA,"10"
"23",2,"mean",2,0,0,22,22,22,NA,NA,0.633694399963133,69,0.11,0,202,67,10,18,"vrouwelijk","rechts",NA,"10"
"24",2,"mean",3,0,0,23,23,23,NA,NA,0.590601300005801,68,0.11,0.11,270,67,10,18,"vrouwelijk","rechts",NA,"10"
"25",2,"mean",4,0,0,24,24,24,NA,NA,0.888607600005344,66,0.15556349186104,0.11,336,67,10,18,"vrouwelijk","rechts",NA,"10"
"26",2,"mean",5,0,0,25,25,25,NA,NA,0.859381999936886,68,0.33,0.22,404,67,10,18,"vrouwelijk","rechts",NA,"10"
"27",2,"mean",6,0,0,26,26,26,NA,NA,0.364392500021495,69,0.11,0.11,473,67,10,18,"vrouwelijk","rechts",NA,"10"
"28",2,"mean",7,0,0,27,27,27,NA,NA,0.979690799955279,70,0.15556349186104,0,543,67,10,18,"vrouwelijk","rechts",NA,"10"
"29",2,"mean",8,0,0,28,28,28,NA,NA,0.516269500018097,71,0.11,0,614,68,10,18,"vrouwelijk","rechts",NA,"10"
"30",2,"mean",9,0,0,29,29,29,NA,NA,0.654030699981377,75,0.15556349186104,0,689,68,10,18,"vrouwelijk","rechts",NA,"10"
"31",2,"mean",10,0,0,30,30,30,NA,NA,0.647211599978618,74,0.11,0,763,69,10,18,"vrouwelijk","rechts",NA,"10"
"32",2,"mean",11,0,0,31,31,31,NA,NA,0.570424099918455,75,0.15556349186104,0,838,69,10,18,"vrouwelijk","rechts",NA,"10"
"33",2,"mean",12,0,0,32,32,32,NA,NA,0.85712970001623,73,0.11,0.11,911,70,10,18,"vrouwelijk","rechts",NA,"10"
"34",2,"mean",13,0,0,33,33,33,NA,NA,0.942742299987003,72,0.15556349186104,0.11,983,70,10,18,"vrouwelijk","rechts",NA,"10"
"35",2,"mean",14,0,0,34,34,34,NA,NA,0.678534299950115,79,0.245967477524977,0,1062,70,10,18,"vrouwelijk","rechts",NA,"10"
"36",2,"mean",15,0,0,35,35,35,NA,NA,0.541539700003341,70,0.245967477524977,0.15556349186104,1132,70,10,18,"vrouwelijk","rechts",NA,"10"
"37",2,"mean",16,0,0,36,36,36,NA,NA,0.60987559997011,80,0.22,0,1212,71,10,18,"vrouwelijk","rechts",NA,"10"
"38",2,"mean",17,0,0,37,37,37,NA,NA,0.581302599981427,75,0.11,0.11,1287,71,10,18,"vrouwelijk","rechts",NA,"10"
"39",2,"mean",18,0,0,38,38,38,NA,NA,0.846757799969055,79,0.15556349186104,0.11,1366,71,10,18,"vrouwelijk","rechts",NA,"10"
"40",2,"mean",19,0,0,39,39,39,NA,NA,0.803741100011393,72,0.311126983722081,0.22,1438,71,10,18,"vrouwelijk","rechts",NA,"10"
"41",3,"total",0,0,0,40,40,40,NA,NA,3.14360750000924,58,0.15556349186104,0.15556349186104,58,58,10,18,"vrouwelijk","rechts",NA,"10"
"42",3,"total",1,0,0,41,41,41,NA,NA,2.16027239989489,61,0.15556349186104,0,119,59,10,18,"vrouwelijk","rechts",NA,"10"
"43",3,"total",2,0,0,42,42,42,NA,NA,0.832458500051871,58,0.15556349186104,0.15556349186104,177,59,10,18,"vrouwelijk","rechts",NA,"10"
"44",3,"total",3,0,0,43,43,43,NA,NA,0.812211300013587,59,0.11,0.11,236,59,10,18,"vrouwelijk","rechts",NA,"10"
"45",3,"total",4,0,0,44,44,44,NA,NA,0.939554999931715,67,0.245967477524977,0,303,60,10,18,"vrouwelijk","rechts",NA,"10"
"46",3,"total",5,0,0,45,45,45,NA,NA,0.995934000005946,71,0.11,0,374,62,10,18,"vrouwelijk","rechts",NA,"10"
"47",3,"total",6,0,0,46,46,46,NA,NA,0.663878099992871,73,0.11,0,447,63,10,18,"vrouwelijk","rechts",NA,"10"
"48",3,"total",7,0,0,47,47,47,NA,NA,0.7178309999872,70,0.11,0.11,517,64,10,18,"vrouwelijk","rechts",NA,"10"
"49",3,"total",8,0,0,48,48,48,NA,NA,0.54843450000044,67,0.15556349186104,0.11,584,64,10,18,"vrouwelijk","rechts",NA,"10"
"50",3,"total",9,0,0,49,49,49,NA,NA,0.789307400002144,63,0.15556349186104,0.22,647,64,10,18,"vrouwelijk","rechts",NA,"10"
"51",3,"total",10,0,0,50,50,50,NA,NA,1.03511320007965,63,0.15556349186104,0.15556349186104,710,64,10,18,"vrouwelijk","rechts",NA,"10"
"52",3,"total",11,0,0,51,51,51,NA,NA,0.512948299990967,65,0.11,0.11,775,64,10,18,"vrouwelijk","rechts",NA,"10"
"53",3,"total",12,0,0,52,52,52,NA,NA,0.186555199907161,61,0.311126983722081,0.22,836,64,10,18,"vrouwelijk","rechts",NA,"10"
"54",3,"total",13,0,0,53,53,53,NA,NA,2.69886669993866,23,0.859127464349732,1.03773792452623,859,61,10,18,"vrouwelijk","rechts",NA,"10"
"55",3,"total",14,0,0,54,54,54,NA,NA,1.12199410004541,46,0.622253967444162,0.453541618817943,905,60,10,18,"vrouwelijk","rechts",NA,"10"
"56",3,"total",15,0,0,55,55,55,NA,NA,1.18981150002219,63,0.453541618817943,0.22,968,60,10,18,"vrouwelijk","rechts",NA,"10"
"57",3,"total",16,0,0,56,56,56,NA,NA,0.0411379999713972,55,0.11,0.245967477524977,1023,60,10,18,"vrouwelijk","rechts",NA,"10"
"58",3,"total",17,0,0,57,57,57,NA,NA,1.20167590002529,57,0.641404708432983,0.491934955049954,1080,60,10,18,"vrouwelijk","rechts",NA,"10"
"59",3,"total",18,0,0,58,58,58,NA,NA,1.02254349994473,54,0.245967477524977,0.396610640301039,1134,59,10,18,"vrouwelijk","rechts",NA,"10"
"60",3,"total",19,0,0,59,59,59,NA,NA,4.13772240001708,52,0.669103878332804,0.907083237635885,1186,59,10,18,"vrouwelijk","rechts",NA,"10"
"61",4,"mean",0,0,0,60,60,60,NA,NA,2.40183329989668,69,0.15556349186104,0.15556349186104,69,69,10,18,"vrouwelijk","rechts",NA,"10"
"62",4,"mean",1,0,0,61,61,61,NA,NA,0.922135400003754,68,0.15556349186104,0.15556349186104,137,68,10,18,"vrouwelijk","rechts",NA,"10"
"63",4,"mean",2,0,0,62,62,62,NA,NA,0.891229999950156,70,0.11,0,207,69,10,18,"vrouwelijk","rechts",NA,"10"
"64",4,"mean",3,0,0,63,63,63,NA,NA,0.896684400038794,71,0.11,0,278,69,10,18,"vrouwelijk","rechts",NA,"10"
"65",4,"mean",4,0,0,64,64,64,NA,NA,0.602181700058281,74,0.11,0,352,70,10,18,"vrouwelijk","rechts",NA,"10"
"66",4,"mean",5,0,0,65,65,65,NA,NA,0.644688500091434,77,0.11,0,429,71,10,18,"vrouwelijk","rechts",NA,"10"
"67",4,"mean",6,0,0,66,66,66,NA,NA,0.884675299981609,75,0.11,0.11,504,72,10,18,"vrouwelijk","rechts",NA,"10"
"68",4,"mean",7,0,0,67,67,67,NA,NA,0.938919999985956,79,0.22,0,583,72,10,18,"vrouwelijk","rechts",NA,"10"
"69",4,"mean",8,0,0,68,68,68,NA,NA,0.633251999970526,80,0.11,0,663,73,10,18,"vrouwelijk","rechts",NA,"10"
"70",4,"mean",9,0,0,69,69,69,NA,NA,0.597028299933299,79,0.11,0.11,742,74,10,18,"vrouwelijk","rechts",NA,"10"
"71",4,"mean",10,0,0,70,70,70,NA,NA,0.810326699982397,75,0.15556349186104,0.11,817,74,10,18,"vrouwelijk","rechts",NA,"10"
"72",4,"mean",11,0,0,71,71,71,NA,NA,0.605989099945873,75,0.11,0.11,892,74,10,18,"vrouwelijk","rechts",NA,"10"
"73",4,"mean",12,0,0,72,72,72,NA,NA,0.513523899950087,72,0.22,0.15556349186104,964,74,10,18,"vrouwelijk","rechts",NA,"10"
"74",4,"mean",13,0,0,73,73,73,NA,NA,0.449933999916539,72,0.245967477524977,0.22,1036,74,10,18,"vrouwelijk","rechts",NA,"10"
"75",4,"mean",14,0,0,74,74,74,NA,NA,0.189004800049588,70,0.11,0.22,1106,73,10,18,"vrouwelijk","rechts",NA,"10"
"76",4,"mean",15,0,0,75,75,75,NA,NA,0.238767199916765,65,0.11,0.245967477524977,1171,73,10,18,"vrouwelijk","rechts",NA,"10"
"77",4,"mean",16,0,0,76,76,76,NA,NA,0.161733500077389,77,0.245967477524977,0.22,1248,73,10,18,"vrouwelijk","rechts",NA,"10"
"78",4,"mean",17,0,0,77,77,77,NA,NA,0.781762399943545,66,0.11,0.245967477524977,1314,73,10,18,"vrouwelijk","rechts",NA,"10"
"79",4,"mean",18,0,0,78,78,78,NA,NA,1.11385179997887,72,0.55,0.245967477524977,1386,72,10,18,"vrouwelijk","rechts",NA,"10"
"80",4,"mean",19,0,0,79,79,79,NA,NA,0.240895900060423,69,0.11,0.311126983722081,1455,72,10,18,"vrouwelijk","rechts",NA,"10"
"81",5,"total",0,0,0,80,80,80,NA,NA,3.43781839997973,51,0.15556349186104,0.15556349186104,51,51,10,18,"vrouwelijk","rechts",NA,"10"
"82",5,"total",1,0,0,81,81,81,NA,NA,2.16200339992065,31,0.466690475583121,0.622253967444162,82,41,10,18,"vrouwelijk","rechts",NA,"10"
"83",5,"total",2,0,0,82,82,82,NA,NA,1.730653500068,12,0.777817459305202,1.40007142674936,94,31,10,18,"vrouwelijk","rechts",NA,"10"
"84",5,"total",3,0,0,83,83,83,NA,NA,1.21496080001816,8,1.1,0.996092365195116,102,25,10,18,"vrouwelijk","rechts",NA,"10"
"85",5,"total",4,0,0,84,84,84,NA,NA,1.0749599999981,49,1.5556349186104,0.996092365195116,151,30,10,18,"vrouwelijk","rechts",NA,"10"
"86",5,"total",5,0,0,85,85,85,NA,NA,0.898482899996452,56,0.311126983722081,0,207,34,10,18,"vrouwelijk","rechts",NA,"10"
"87",5,"total",6,0,0,86,86,86,NA,NA,1.28593949996866,50,0.245967477524977,0.245967477524977,257,36,10,18,"vrouwelijk","rechts",NA,"10"
"88",5,"total",7,0,0,87,87,87,NA,NA,0.784740899922326,48,0.11,0.15556349186104,305,38,10,18,"vrouwelijk","rechts",NA,"10"
"89",5,"total",8,0,0,88,88,88,NA,NA,0.42756380001083,35,0.15556349186104,0.22,340,37,10,18,"vrouwelijk","rechts",NA,"10"
"90",5,"total",9,0,0,89,89,89,NA,NA,0.382951500010677,34,0.11,0.245967477524977,374,37,10,18,"vrouwelijk","rechts",NA,"10"
"91",5,"total",10,0,0,90,90,90,NA,NA,0.236191299976781,44,0.11,0.15556349186104,418,38,10,18,"vrouwelijk","rechts",NA,"10"
"92",5,"total",11,0,0,91,91,91,NA,NA,0.0713959001004696,68,0.311126983722081,0,486,40,10,18,"vrouwelijk","rechts",NA,"10"
"93",5,"total",12,0,0,92,92,92,NA,NA,0.592477399972267,76,0.15556349186104,0,562,43,10,18,"vrouwelijk","rechts",NA,"10"
"94",5,"total",13,0,0,93,93,93,NA,NA,0.451851599966176,73,0.11,0,635,45,10,18,"vrouwelijk","rechts",NA,"10"
"95",5,"total",14,0,0,94,94,94,NA,NA,0.420530700008385,67,0.11,0.11,702,46,10,18,"vrouwelijk","rechts",NA,"10"
"96",5,"total",15,0,0,95,95,95,NA,NA,0.713868699967861,76,0.33,0,778,48,10,18,"vrouwelijk","rechts",NA,"10"
"97",5,"total",16,0,0,96,96,96,NA,NA,1.16328680003062,74,0.11,0.11,852,50,10,18,"vrouwelijk","rechts",NA,"10"
"98",5,"total",17,0,0,97,97,97,NA,NA,0.428739399998449,70,0.15556349186104,0.11,922,51,10,18,"vrouwelijk","rechts",NA,"10"
"99",5,"total",18,0,0,98,98,98,NA,NA,0.00908240000717342,70,0,0.11,992,52,10,18,"vrouwelijk","rechts",NA,"10"
"100",5,"total",19,0,0,99,99,99,NA,NA,0.932361399987712,70,0.11,0.11,1062,53,10,18,"vrouwelijk","rechts",NA,"10"
"101",6,"mean",0,0,0,100,100,100,NA,NA,1.51340799999889,60,0.245967477524977,0.245967477524977,60,60,10,18,"vrouwelijk","rechts",NA,"10"
"102",6,"mean",1,0,0,101,101,101,NA,NA,0.98624200001359,69,0.15556349186104,0,129,64,10,18,"vrouwelijk","rechts",NA,"10"
"103",6,"mean",2,0,0,102,102,102,NA,NA,0.650976500008255,74,0.15556349186104,0,203,67,10,18,"vrouwelijk","rechts",NA,"10"
"104",6,"mean",3,0,0,103,103,103,NA,NA,0.930768099962734,74,0.155563491861041,0.155563491861041,277,69,10,18,"vrouwelijk","rechts",NA,"10"
"105",6,"mean",4,0,0,104,104,104,NA,NA,1.5467357999878,72,0.11,0.11,349,69,10,18,"vrouwelijk","rechts",NA,"10"
"106",6,"mean",5,0,0,105,105,105,NA,NA,0.693095099995844,74,0.22,0.245967477524977,423,70,10,18,"vrouwelijk","rechts",NA,"10"
"107",6,"mean",6,0,0,106,106,106,NA,NA,1.07283699989785,72,0.11,0.347850542618522,495,70,10,18,"vrouwelijk","rechts",NA,"10"
"108",6,"mean",7,0,0,107,107,107,NA,NA,0.574746800004505,69,0.44,0.15556349186104,564,70,10,18,"vrouwelijk","rechts",NA,"10"
"109",6,"mean",8,0,0,108,108,108,NA,NA,0.474451899994165,70,0.11,0.11,634,70,10,18,"vrouwelijk","rechts",NA,"10"
"110",6,"mean",9,0,0,109,109,109,NA,NA,0.520300299976952,76,0.245967477524977,0,710,71,10,18,"vrouwelijk","rechts",NA,"10"
"111",6,"mean",10,0,0,110,110,110,NA,NA,1.35461349994875,74,0.15556349186104,0.15556349186104,784,71,10,18,"vrouwelijk","rechts",NA,"10"
"112",6,"mean",11,0,0,111,111,111,NA,NA,0.541515400051139,74,0.11,0.11,858,71,10,18,"vrouwelijk","rechts",NA,"10"
"113",6,"mean",12,0,0,112,112,112,NA,NA,0.463134300080128,76,0.15556349186104,0,934,71,10,18,"vrouwelijk","rechts",NA,"10"
"114",6,"mean",13,0,0,113,113,113,NA,NA,0.196964899892919,76,0.15556349186104,0.11,1010,72,10,18,"vrouwelijk","rechts",NA,"10"
"115",6,"mean",14,0,0,114,114,114,NA,NA,0.164858499891125,74,0.15556349186104,0.11,1084,72,10,18,"vrouwelijk","rechts",NA,"10"
"116",6,"mean",15,0,0,115,115,115,NA,NA,0.235688299988396,71,0.11,0.15556349186104,1155,72,10,18,"vrouwelijk","rechts",NA,"10"
"117",6,"mean",16,0,0,116,116,116,NA,NA,0.468562999973074,76,0.311126983722081,0.11,1231,72,10,18,"vrouwelijk","rechts",NA,"10"
"118",6,"mean",17,0,0,117,117,117,NA,NA,0.262218800024129,72,0.15556349186104,0.11,1303,72,10,18,"vrouwelijk","rechts",NA,"10"
"119",6,"mean",18,0,0,118,118,118,NA,NA,0.292179599986412,70,0.11,0.15556349186104,1373,72,10,18,"vrouwelijk","rechts",NA,"10"
"120",6,"mean",19,0,0,119,119,119,NA,NA,0.480131499934942,70,0.15556349186104,0.22,1443,72,10,18,"vrouwelijk","rechts",NA,"10"
"121",7,"total",0,0,0,120,120,120,NA,NA,1.19772920000833,30,0.15556349186104,0.15556349186104,30,30,10,18,"vrouwelijk","rechts",NA,"10"
"122",7,"total",1,0,0,121,121,121,NA,NA,0.62294229993131,52,0.311126983722081,0,82,41,10,18,"vrouwelijk","rechts",NA,"10"
"123",7,"total",2,0,0,122,122,122,NA,NA,0.869292299961671,59,0.155563491861041,0,141,47,10,18,"vrouwelijk","rechts",NA,"10"
"124",7,"total",3,0,0,123,123,123,NA,NA,0.616465699975379,55,0.11,0.11,196,49,10,18,"vrouwelijk","rechts",NA,"10"
"125",7,"total",4,0,0,124,124,124,NA,NA,0.942351399920881,60,0.22,0,256,51,10,18,"vrouwelijk","rechts",NA,"10"
"126",7,"total",5,0,0,125,125,125,NA,NA,0.479307999950834,61,0.11,0,317,52,10,18,"vrouwelijk","rechts",NA,"10"
"127",7,"total",6,0,0,126,126,126,NA,NA,1.07858870003838,69,0.22,0,386,55,10,18,"vrouwelijk","rechts",NA,"10"
"128",7,"total",7,0,0,127,127,127,NA,NA,0.480214900104329,64,0.11,0.11,450,56,10,18,"vrouwelijk","rechts",NA,"10"
"129",7,"total",8,0,0,128,128,128,NA,NA,0.280529599986039,87,0.33,0,537,59,10,18,"vrouwelijk","rechts",NA,"10"
"130",7,"total",9,0,0,129,129,129,NA,NA,0.627541800029576,68,0.155563491861041,0.15556349186104,605,60,10,18,"vrouwelijk","rechts",NA,"10"
"131",7,"total",10,0,0,130,130,130,NA,NA,0.35903990000952,79,0.11,0,684,62,10,18,"vrouwelijk","rechts",NA,"10"
"132",7,"total",11,0,0,131,131,131,NA,NA,0.191379499970935,78,0.155563491861041,0.11,762,63,10,18,"vrouwelijk","rechts",NA,"10"
"133",7,"total",12,0,0,132,132,132,NA,NA,0.152079100022092,58,0.15556349186104,0.22,820,63,10,18,"vrouwelijk","rechts",NA,"10"
"134",7,"total",13,0,0,133,133,133,NA,NA,0.0596681999741122,67,0.245967477524977,0.11,887,63,10,18,"vrouwelijk","rechts",NA,"10"
"135",7,"total",14,0,0,134,134,134,NA,NA,0.00918339996133,55,0.11,0.15556349186104,942,62,10,18,"vrouwelijk","rechts",NA,"10"
"136",7,"total",15,0,0,135,135,135,NA,NA,0.131725099985488,53,0.245967477524977,0.33,995,62,10,18,"vrouwelijk","rechts",NA,"10"
"137",7,"total",16,0,0,136,136,136,NA,NA,0.31001869996544,52,0.396610640301039,0.22,1047,61,10,18,"vrouwelijk","rechts",NA,"10"
"138",7,"total",17,0,0,137,137,137,NA,NA,1.24255560000893,51,0.491934955049954,0.44,1098,61,10,18,"vrouwelijk","rechts",NA,"10"
"139",7,"total",18,0,0,138,138,138,NA,NA,0.217164100031368,46,0.245967477524977,0.245967477524977,1144,60,10,18,"vrouwelijk","rechts",NA,"10"
"140",7,"total",19,0,0,139,139,139,NA,NA,0.0627232999540865,41,0.11,0.311126983722081,1185,59,10,18,"vrouwelijk","rechts",NA,"10"
"141",8,"mean",0,0,0,140,140,140,NA,NA,1.3216420999961,57,0.15556349186104,0.15556349186104,57,57,10,18,"vrouwelijk","rechts",NA,"10"
"142",8,"mean",1,0,0,141,141,141,NA,NA,0.737577899941243,65,0.245967477524977,0,122,61,10,18,"vrouwelijk","rechts",NA,"10"
"143",8,"mean",2,0,0,142,142,142,NA,NA,0.50696779997088,69,0.15556349186104,0,191,63,10,18,"vrouwelijk","rechts",NA,"10"
"144",8,"mean",3,0,0,143,143,143,NA,NA,0.394145700032823,68,0.11,0.11,259,64,10,18,"vrouwelijk","rechts",NA,"10"
"145",8,"mean",4,0,0,144,144,144,NA,NA,0.133445900049992,71,0.15556349186104,0,330,66,10,18,"vrouwelijk","rechts",NA,"10"
"146",8,"mean",5,0,0,145,145,145,NA,NA,0.485860500019044,70,0.11,0.11,400,66,10,18,"vrouwelijk","rechts",NA,"10"
"147",8,"mean",6,0,0,146,146,146,NA,NA,0.256416999967769,69,0.11,0.15556349186104,469,67,10,18,"vrouwelijk","rechts",NA,"10"
"148",8,"mean",7,0,0,147,147,147,NA,NA,0.00135279993992299,69,0.11,0.11,538,67,10,18,"vrouwelijk","rechts",NA,"10"
"149",8,"mean",8,0,0,148,148,148,NA,NA,0.446132100070827,64,0.245967477524977,0.22,602,66,10,18,"vrouwelijk","rechts",NA,"10"
"150",8,"mean",9,0,0,149,149,149,NA,NA,0.473498200066388,67,0.396610640301039,0.22,669,66,10,18,"vrouwelijk","rechts",NA,"10"
"151",8,"mean",10,0,0,150,150,150,NA,NA,0.120323100010864,66,0.11,0.22,735,66,10,18,"vrouwelijk","rechts",NA,"10"
"152",8,"mean",11,0,0,151,151,151,NA,NA,0.00234930007718503,64,0.11,0.245967477524977,799,66,10,18,"vrouwelijk","rechts",NA,"10"
"153",8,"mean",12,0,0,152,152,152,NA,NA,0.322574099991471,60,0.22,0.396610640301039,859,66,10,18,"vrouwelijk","rechts",NA,"10"
"154",8,"mean",13,0,0,153,153,153,NA,NA,0.295255899894983,62,0.11,0.311126983722081,921,65,10,18,"vrouwelijk","rechts",NA,"10"
"155",8,"mean",14,0,0,154,154,154,NA,NA,0.000624899985268712,58,0.245967477524977,0.33,979,65,10,18,"vrouwelijk","rechts",NA,"10"
"156",8,"mean",15,0,0,155,155,155,NA,NA,0.472160400007851,54,0.33,0.466690475583121,1033,64,10,18,"vrouwelijk","rechts",NA,"10"
"157",8,"mean",16,0,0,156,156,156,NA,NA,0.481780500034802,55,0.11,0.396610640301039,1088,64,10,18,"vrouwelijk","rechts",NA,"10"
"158",8,"mean",17,0,0,157,157,157,NA,NA,0.195540399989113,59,0.22,0.33,1147,63,10,18,"vrouwelijk","rechts",NA,"10"
"159",8,"mean",18,0,0,158,158,158,NA,NA,0.171151200076565,67,0.15556349186104,0.22,1214,63,10,18,"vrouwelijk","rechts",NA,"10"
"160",8,"mean",19,0,0,159,159,159,NA,NA,0.138727199984714,61,0.11,0.33,1275,63,10,18,"vrouwelijk","rechts",NA,"10"
"161",9,"total",0,0,0,160,160,160,NA,NA,1.91621419996955,78,0.859127464349732,0.859127464349732,78,78,10,18,"vrouwelijk","rechts",NA,"10"
"162",9,"total",1,0,0,161,161,161,NA,NA,0.695728600025177,60,0.11,0.11,138,69,10,18,"vrouwelijk","rechts",NA,"10"
"163",9,"total",2,0,0,162,162,162,NA,NA,0.131440899916925,82,0.15556349186104,0,220,73,10,18,"vrouwelijk","rechts",NA,"10"
"164",9,"total",3,0,0,163,163,163,NA,NA,0.0393305000616238,59,0.11,0.11,279,69,10,18,"vrouwelijk","rechts",NA,"10"
"165",9,"total",4,0,0,164,164,164,NA,NA,0.170524299959652,48,0.15556349186104,0.245967477524977,327,65,10,18,"vrouwelijk","rechts",NA,"10"
"166",9,"total",5,0,0,165,165,165,NA,NA,0.79684249998536,85,0.311126983722081,0,412,68,10,18,"vrouwelijk","rechts",NA,"10"
"167",9,"total",6,0,0,166,166,166,NA,NA,0.189337500021793,86,0.11,0,498,71,10,18,"vrouwelijk","rechts",NA,"10"
"168",9,"total",7,0,0,167,167,167,NA,NA,0.302901300019585,84,0.11,0.11,582,72,10,18,"vrouwelijk","rechts",NA,"10"
"169",9,"total",8,0,0,168,168,168,NA,NA,0.46839589998126,80,0.11,0.22,662,73,10,18,"vrouwelijk","rechts",NA,"10"
"170",9,"total",9,0,0,169,169,169,NA,NA,0.40896450006403,75,0.11,0.33,737,73,10,18,"vrouwelijk","rechts",NA,"10"
"171",9,"total",10,0,0,170,170,170,NA,NA,0.751585499965586,51,0.15556349186104,0.245967477524977,788,71,10,18,"vrouwelijk","rechts",NA,"10"
"172",9,"total",11,0,0,171,171,171,NA,NA,0.301978600095026,53,0.11,0.15556349186104,841,70,10,18,"vrouwelijk","rechts",NA,"10"
"173",9,"total",12,0,0,172,172,172,NA,NA,0.0658715000608936,55,0.11,0.11,896,68,10,18,"vrouwelijk","rechts",NA,"10"
"174",9,"total",13,0,0,173,173,173,NA,NA,0.958208499941975,72,0.453541618817943,0.44,968,69,10,18,"vrouwelijk","rechts",NA,"10"
"175",9,"total",14,0,0,174,174,174,NA,NA,0.24487679998856,71,0.11,0.55,1039,69,10,18,"vrouwelijk","rechts",NA,"10"
"176",9,"total",15,0,0,175,175,175,NA,NA,0.00107720005325973,70,0.11,0.66,1109,69,10,18,"vrouwelijk","rechts",NA,"10"
"177",9,"total",16,0,0,176,176,176,NA,NA,0.282509500044398,68,0.11,0.77,1177,69,10,18,"vrouwelijk","rechts",NA,"10"
"178",9,"total",17,0,0,177,177,177,NA,NA,1.36038729990833,58,0.11,0.777817459305202,1235,68,10,18,"vrouwelijk","rechts",NA,"10"
"179",9,"total",18,0,0,178,178,178,NA,NA,0.620525400037877,58,0,0.777817459305202,1293,68,10,18,"vrouwelijk","rechts",NA,"10"
"180",9,"total",19,0,0,179,179,179,NA,NA,1.99990619998425,57,0.88,0.11,1350,67,10,18,"vrouwelijk","rechts",NA,"10"
"181",1,"total",0,1,0,0,0,0,NA,NA,2.06307420000667,14,0.11,0.11,14,14,100,18,"vrouwelijk","rechts",NA,"100"
"182",1,"total",1,1,0,1,1,1,NA,NA,0.776835700002266,16,0.11,0.15556349186104,30,15,100,18,"vrouwelijk","rechts",NA,"100"
"183",1,"total",2,1,0,2,2,2,NA,NA,0.646847199997865,22,0.11,0.11,52,17,100,18,"vrouwelijk","rechts",NA,"100"
"184",1,"total",3,1,0,3,3,3,NA,NA,0.657987099999445,27,0.11,0.11,79,19,100,18,"vrouwelijk","rechts",NA,"100"
"185",1,"total",4,1,0,4,4,4,NA,NA,0.578347999995458,35,0.11,0.11,114,22,100,18,"vrouwelijk","rechts",NA,"100"
"186",1,"total",5,1,0,5,5,5,NA,NA,0.728266600010102,42,0.11,0.11,156,26,100,18,"vrouwelijk","rechts",NA,"100"
"187",1,"total",6,1,0,6,6,6,NA,NA,1.16054189999704,44,0.11,0.11,200,28,100,18,"vrouwelijk","rechts",NA,"100"
"188",1,"total",7,1,0,7,7,7,NA,NA,0.650198400006047,40,0.11,0.11,240,30,100,18,"vrouwelijk","rechts",NA,"100"
"189",1,"total",8,1,0,8,8,8,NA,NA,0.598531699986779,45,0.15556349186104,0.11,285,31,100,18,"vrouwelijk","rechts",NA,"100"
"190",1,"total",9,1,0,9,9,9,NA,NA,0.371024599997327,39,0.11,0.11,324,32,100,18,"vrouwelijk","rechts",NA,"100"
"191",1,"total",10,1,0,10,10,10,NA,NA,1.29112870000245,44,0.22,0.15556349186104,368,33,100,18,"vrouwelijk","rechts",NA,"100"
"192",1,"total",11,1,0,11,11,11,NA,NA,0.242686899990076,44,0.11,0.11,412,34,100,18,"vrouwelijk","rechts",NA,"100"
"193",1,"total",12,1,0,12,12,12,NA,NA,3.46388419999857,45,0.11,0.22,457,35,100,18,"vrouwelijk","rechts",NA,"100"
"194",1,"total",13,1,0,13,13,13,NA,NA,4.39762019999034,37,0.11,0.11,494,35,100,18,"vrouwelijk","rechts",NA,"100"
"195",1,"total",14,1,0,14,14,14,NA,NA,0.820086799998535,47,0.22,0.11,541,36,100,18,"vrouwelijk","rechts",NA,"100"
"196",1,"total",15,1,0,15,15,15,NA,NA,1.14130599999044,43,0.11,0.11,584,36,100,18,"vrouwelijk","rechts",NA,"100"
"197",1,"total",16,1,0,16,16,16,NA,NA,1.32586099999025,51,0.15556349186104,0.11,635,37,100,18,"vrouwelijk","rechts",NA,"100"
"198",1,"total",17,1,0,17,17,17,NA,NA,0.808660700000473,58,0.11,0.11,693,38,100,18,"vrouwelijk","rechts",NA,"100"
"199",1,"total",18,1,0,18,18,18,NA,NA,0.63290730000881,66,0.11,0.11,759,39,100,18,"vrouwelijk","rechts",NA,"100"
"200",1,"total",19,1,0,19,19,19,NA,NA,1.00345760000346,74,0.11,0.11,833,41,100,18,"vrouwelijk","rechts",NA,"100"
"201",2,"mean",0,0,0,20,20,20,NA,NA,2.53310950000014,35,0.11,0.11,35,35,100,18,"vrouwelijk","rechts",NA,"100"
"202",2,"mean",1,0,0,21,21,21,NA,NA,1.046503199992,43,0.11,0.11,78,39,100,18,"vrouwelijk","rechts",NA,"100"
"203",2,"mean",2,0,0,22,22,22,NA,NA,1.08788979999372,50,0.11,0.11,128,42,100,18,"vrouwelijk","rechts",NA,"100"
"204",2,"mean",3,0,0,23,23,23,NA,NA,0.97587699998985,56,0.11,0.11,184,46,100,18,"vrouwelijk","rechts",NA,"100"
"205",2,"mean",4,0,0,24,24,24,NA,NA,0.918408099998487,63,0.11,0.11,247,49,100,18,"vrouwelijk","rechts",NA,"100"
"206",2,"mean",5,0,0,25,25,25,NA,NA,0.857629899997846,71,0.11,0.11,318,53,100,18,"vrouwelijk","rechts",NA,"100"
"207",2,"mean",6,0,0,26,26,26,NA,NA,1.23097660001076,80,0.11,0.11,398,56,100,18,"vrouwelijk","rechts",NA,"100"
"208",2,"mean",7,0,0,27,27,27,NA,NA,0.95438060000015,78,0.11,0.11,476,59,100,18,"vrouwelijk","rechts",NA,"100"
"209",2,"mean",8,0,0,28,28,28,NA,NA,0.751900099989143,78,0.22,0.11,554,61,100,18,"vrouwelijk","rechts",NA,"100"
"210",2,"mean",9,0,0,29,29,29,NA,NA,1.16138849999697,71,0.245967477524977,0.11,625,62,100,18,"vrouwelijk","rechts",NA,"100"
"211",2,"mean",10,0,0,30,30,30,NA,NA,0.567601400005515,67,0.22,0.15556349186104,692,62,100,18,"vrouwelijk","rechts",NA,"100"
"212",2,"mean",11,0,0,31,31,31,NA,NA,0.317129699993529,70,0.347850542618522,0.11,762,63,100,18,"vrouwelijk","rechts",NA,"100"
"213",2,"mean",12,0,0,32,32,32,NA,NA,0.911211800004821,72,0.44,0.22,834,64,100,18,"vrouwelijk","rechts",NA,"100"
"214",2,"mean",13,0,0,33,33,33,NA,NA,4.36856200000329,63,0.11,0.245967477524977,897,64,100,18,"vrouwelijk","rechts",NA,"100"
"215",2,"mean",14,0,0,34,34,34,NA,NA,0.550250400003279,67,0.15556349186104,0.33,964,64,100,18,"vrouwelijk","rechts",NA,"100"
"216",2,"mean",15,0,0,35,35,35,NA,NA,1.95670260000043,68,0.560892146495206,0.15556349186104,1032,64,100,18,"vrouwelijk","rechts",NA,"100"
"217",2,"mean",16,0,0,36,36,36,NA,NA,0.50367279999773,57,0.15556349186104,0.22,1089,64,100,18,"vrouwelijk","rechts",NA,"100"
"218",2,"mean",17,0,0,37,37,37,NA,NA,0.738562600003206,60,0.11,0.245967477524977,1149,63,100,18,"vrouwelijk","rechts",NA,"100"
"219",2,"mean",18,0,0,38,38,38,NA,NA,0.798655099992175,61,0.66,0.347850542618522,1210,63,100,18,"vrouwelijk","rechts",NA,"100"
"220",2,"mean",19,0,0,39,39,39,NA,NA,0.25406939999084,60,0.245967477524977,0.22,1270,63,100,18,"vrouwelijk","rechts",NA,"100"
"221",3,"total",0,0,0,40,40,40,NA,NA,4.00114109998685,31,0.88,0.88,31,31,100,18,"vrouwelijk","rechts",NA,"100"
"222",3,"total",1,0,0,41,41,41,NA,NA,3.08256039999833,53,0.88684835231284,0.11,84,42,100,18,"vrouwelijk","rechts",NA,"100"
"223",3,"total",2,0,0,42,42,42,NA,NA,1.75309630000265,30,0.66,0.66,114,38,100,18,"vrouwelijk","rechts",NA,"100"
"224",3,"total",3,0,0,43,43,43,NA,NA,1.46703070000513,61,0.33,0.33,175,43,100,18,"vrouwelijk","rechts",NA,"100"
"225",3,"total",4,0,0,44,44,44,NA,NA,1.17217689999961,47,0.11,0.11,222,44,100,18,"vrouwelijk","rechts",NA,"100"
"226",3,"total",5,0,0,45,45,45,NA,NA,0.900365599998622,49,0.15556349186104,0.11,271,45,100,18,"vrouwelijk","rechts",NA,"100"
"227",3,"total",6,0,0,46,46,46,NA,NA,0.810442000001785,82,0.15556349186104,0.11,353,50,100,18,"vrouwelijk","rechts",NA,"100"
"228",3,"total",7,0,0,47,47,47,NA,NA,1.16401790000964,68,0.11,0.11,421,52,100,18,"vrouwelijk","rechts",NA,"100"
"229",3,"total",8,0,0,48,48,48,NA,NA,0.772983699993347,90,0.22,0.11,511,56,100,18,"vrouwelijk","rechts",NA,"100"
"230",3,"total",9,0,0,49,49,49,NA,NA,2.73829670000123,67,0.11,0.11,578,57,100,18,"vrouwelijk","rechts",NA,"100"
"231",3,"total",10,0,0,50,50,50,NA,NA,0.839020500003244,65,0.11,0.15556349186104,643,58,100,18,"vrouwelijk","rechts",NA,"100"
"232",3,"total",11,0,0,51,51,51,NA,NA,0.474439700003131,87,0.11,0.11,730,60,100,18,"vrouwelijk","rechts",NA,"100"
"233",3,"total",12,0,0,52,52,52,NA,NA,0.69085470000573,52,0.245967477524977,0.22,782,60,100,18,"vrouwelijk","rechts",NA,"100"
"234",3,"total",13,0,0,53,53,53,NA,NA,0.996543800007203,54,0.396610640301039,0.33,836,59,100,18,"vrouwelijk","rechts",NA,"100"
"235",3,"total",14,0,0,54,54,54,NA,NA,0.496911700000055,73,0.55,0.11,909,60,100,18,"vrouwelijk","rechts",NA,"100"
"236",3,"total",15,0,0,55,55,55,NA,NA,0.611970400001155,52,0.11,0.22,961,60,100,18,"vrouwelijk","rechts",NA,"100"
"237",3,"total",16,0,0,56,56,56,NA,NA,2.63270329999796,48,0.311126983722081,0.22,1009,59,100,18,"vrouwelijk","rechts",NA,"100"
"238",3,"total",17,0,0,57,57,57,NA,NA,0.680240000001504,38,0.11,0.245967477524977,1047,58,100,18,"vrouwelijk","rechts",NA,"100"
"239",3,"total",18,0,0,58,58,58,NA,NA,0.469692700004089,31,0.311126983722081,0.33,1078,56,100,18,"vrouwelijk","rechts",NA,"100"
"240",3,"total",19,0,0,59,59,59,NA,NA,1.43705870000122,36,0.695701085237043,0.245967477524977,1114,55,100,18,"vrouwelijk","rechts",NA,"100"
"241",4,"mean",0,0,0,60,60,60,NA,NA,1.7934183999896,48,0.11,0.11,48,48,100,18,"vrouwelijk","rechts",NA,"100"
"242",4,"mean",1,0,0,61,61,61,NA,NA,1.67472860000271,53,0.22,0.11,101,50,100,18,"vrouwelijk","rechts",NA,"100"
"243",4,"mean",2,0,0,62,62,62,NA,NA,1.06738690000202,42,0.15556349186104,0.15556349186104,143,47,100,18,"vrouwelijk","rechts",NA,"100"
"244",4,"mean",3,0,0,63,63,63,NA,NA,1.31834119999257,56,0.22,0.15556349186104,199,49,100,18,"vrouwelijk","rechts",NA,"100"
"245",4,"mean",4,0,0,64,64,64,NA,NA,1.57493570000224,61,0.22,0.22,260,52,100,18,"vrouwelijk","rechts",NA,"100"
"246",4,"mean",5,0,0,65,65,65,NA,NA,1.25121269999363,58,0.22,0.22,318,53,100,18,"vrouwelijk","rechts",NA,"100"
"247",4,"mean",6,0,0,66,66,66,NA,NA,1.01548949998687,60,0.11,0.11,378,54,100,18,"vrouwelijk","rechts",NA,"100"
"248",4,"mean",7,0,0,67,67,67,NA,NA,1.97187439999834,56,0.15556349186104,0.11,434,54,100,18,"vrouwelijk","rechts",NA,"100"
"249",4,"mean",8,0,0,68,68,68,NA,NA,0.703430099994875,66,0.22,0.11,500,55,100,18,"vrouwelijk","rechts",NA,"100"
"250",4,"mean",9,0,0,69,69,69,NA,NA,0.891045500000473,75,0.22,0.22,575,57,100,18,"vrouwelijk","rechts",NA,"100"
"251",4,"mean",10,0,0,70,70,70,NA,NA,1.02688100001251,75,0.22,0.22,650,59,100,18,"vrouwelijk","rechts",NA,"100"
"252",4,"mean",11,0,0,71,71,71,NA,NA,0.999317299996619,73,0.11,0.11,723,60,100,18,"vrouwelijk","rechts",NA,"100"
"253",4,"mean",12,0,0,72,72,72,NA,NA,0.531634099999792,65,0.11,0.15556349186104,788,60,100,18,"vrouwelijk","rechts",NA,"100"
"254",4,"mean",13,0,0,73,73,73,NA,NA,0.692987699992955,78,0.22,0.15556349186104,866,61,100,18,"vrouwelijk","rechts",NA,"100"
"255",4,"mean",14,0,0,74,74,74,NA,NA,0.816686199992546,80,0.11,0.11,946,63,100,18,"vrouwelijk","rechts",NA,"100"
"256",4,"mean",15,0,0,75,75,75,NA,NA,0.443807699994068,78,0.11,0.11,1024,64,100,18,"vrouwelijk","rechts",NA,"100"
"257",4,"mean",16,0,0,76,76,76,NA,NA,0.751263700003619,82,0.15556349186104,0.11,1106,65,100,18,"vrouwelijk","rechts",NA,"100"
"258",4,"mean",17,0,0,77,77,77,NA,NA,1.04556559999764,82,0.11,0.11,1188,66,100,18,"vrouwelijk","rechts",NA,"100"
"259",4,"mean",18,0,0,78,78,78,NA,NA,0.713530600012746,79,0.11,0.11,1267,66,100,18,"vrouwelijk","rechts",NA,"100"
"260",4,"mean",19,0,0,79,79,79,NA,NA,1.06968189998588,81,0.15556349186104,0.11,1348,67,100,18,"vrouwelijk","rechts",NA,"100"
"261",5,"total",0,0,0,80,80,80,NA,NA,2.139834600006,61,0.11,0.11,61,61,100,18,"vrouwelijk","rechts",NA,"100"
"262",5,"total",1,0,0,81,81,81,NA,NA,2.80180960000143,54,0.15556349186104,0.11,115,57,100,18,"vrouwelijk","rechts",NA,"100"
"263",5,"total",2,0,0,82,82,82,NA,NA,0.9322691999987,74,0.22,0.11,189,63,100,18,"vrouwelijk","rechts",NA,"100"
"264",5,"total",3,0,0,83,83,83,NA,NA,1.97309079999104,77,0.22,0.22,266,66,100,18,"vrouwelijk","rechts",NA,"100"
"265",5,"total",4,0,0,84,84,84,NA,NA,0.888370100001339,72,0.11,0.11,338,67,100,18,"vrouwelijk","rechts",NA,"100"
"266",5,"total",5,0,0,85,85,85,NA,NA,1.73098039999604,73,0.245967477524977,0.22,411,68,100,18,"vrouwelijk","rechts",NA,"100"
"267",5,"total",6,0,0,86,86,86,NA,NA,1.77367619999859,73,0.33,0.11,484,69,100,18,"vrouwelijk","rechts",NA,"100"
"268",5,"total",7,0,0,87,87,87,NA,NA,1.27021719999902,77,0.22,0.11,561,70,100,18,"vrouwelijk","rechts",NA,"100"
"269",5,"total",8,0,0,88,88,88,NA,NA,0.646320599989849,76,0.11,0.15556349186104,637,70,100,18,"vrouwelijk","rechts",NA,"100"
"270",5,"total",9,0,0,89,89,89,NA,NA,0.628992400001152,78,0.11,0.11,715,71,100,18,"vrouwelijk","rechts",NA,"100"
"271",5,"total",10,0,0,90,90,90,NA,NA,1.10951239999849,76,0.11,0.11,791,71,100,18,"vrouwelijk","rechts",NA,"100"
"272",5,"total",11,0,0,91,91,91,NA,NA,1.02263000000676,70,0.245967477524977,0.15556349186104,861,71,100,18,"vrouwelijk","rechts",NA,"100"
"273",5,"total",12,0,0,92,92,92,NA,NA,0.846462600005907,74,0.22,0.15556349186104,935,71,100,18,"vrouwelijk","rechts",NA,"100"
"274",5,"total",13,0,0,93,93,93,NA,NA,1.37495669999043,67,0.11,0.245967477524977,1002,71,100,18,"vrouwelijk","rechts",NA,"100"
"275",5,"total",14,0,0,94,94,94,NA,NA,1.80211710000003,65,0.55,0.33,1067,71,100,18,"vrouwelijk","rechts",NA,"100"
"276",5,"total",15,0,0,95,95,95,NA,NA,1.00883749999048,75,0.245967477524977,0.15556349186104,1142,71,100,18,"vrouwelijk","rechts",NA,"100"
"277",5,"total",16,0,0,96,96,96,NA,NA,0.759586500003934,67,0.22,0.15556349186104,1209,71,100,18,"vrouwelijk","rechts",NA,"100"
"278",5,"total",17,0,0,97,97,97,NA,NA,0.62763959998847,74,0.33,0.245967477524977,1283,71,100,18,"vrouwelijk","rechts",NA,"100"
"279",5,"total",18,0,0,98,98,98,NA,NA,0.910828399995808,69,0.22,0.22,1352,71,100,18,"vrouwelijk","rechts",NA,"100"
"280",5,"total",19,0,0,99,99,99,NA,NA,1.38612669998838,62,0.11,0.245967477524977,1414,70,100,18,"vrouwelijk","rechts",NA,"100"
"281",6,"mean",0,0,0,100,100,100,NA,NA,1.7164688000048,65,0.11,0.11,65,65,100,18,"vrouwelijk","rechts",NA,"100"
"282",6,"mean",1,0,0,101,101,101,NA,NA,1.61560089999693,76,0.22,0.11,141,70,100,18,"vrouwelijk","rechts",NA,"100"
"283",6,"mean",2,0,0,102,102,102,NA,NA,0.972127599990927,61,0.11,0.11,202,67,100,18,"vrouwelijk","rechts",NA,"100"
"284",6,"mean",3,0,0,103,103,103,NA,NA,0.519987899999251,85,0.22,0.11,287,71,100,18,"vrouwelijk","rechts",NA,"100"
"285",6,"mean",4,0,0,104,104,104,NA,NA,0.997017999994568,86,0.11,0.11,373,74,100,18,"vrouwelijk","rechts",NA,"100"
"286",6,"mean",5,0,0,105,105,105,NA,NA,0.342600200005108,80,0.11,0.11,453,75,100,18,"vrouwelijk","rechts",NA,"100"
"287",6,"mean",6,0,0,106,106,106,NA,NA,0.910340000002179,72,0.15556349186104,0.11,525,75,100,18,"vrouwelijk","rechts",NA,"100"
"288",6,"mean",7,0,0,107,107,107,NA,NA,0.692810499996995,62,0.11,0.15556349186104,587,73,100,18,"vrouwelijk","rechts",NA,"100"
"289",6,"mean",8,0,0,108,108,108,NA,NA,0.543111999999383,76,0.22,0.15556349186104,663,73,100,18,"vrouwelijk","rechts",NA,"100"
"290",6,"mean",9,0,0,109,109,109,NA,NA,1.06862329998694,59,0.15556349186104,0.22,722,72,100,18,"vrouwelijk","rechts",NA,"100"
"291",6,"mean",10,0,0,110,110,110,NA,NA,0.800768599990988,46,0.11,0.245967477524977,768,69,100,18,"vrouwelijk","rechts",NA,"100"
"292",6,"mean",11,0,0,111,111,111,NA,NA,0.976454799994826,60,0.453541618817943,0.245967477524977,828,69,100,18,"vrouwelijk","rechts",NA,"100"
"293",6,"mean",12,0,0,112,112,112,NA,NA,0.972709499998018,66,0.245967477524977,0.22,894,68,100,18,"vrouwelijk","rechts",NA,"100"
"294",6,"mean",13,0,0,113,113,113,NA,NA,0.489552900005947,58,0.22,0.311126983722081,952,68,100,18,"vrouwelijk","rechts",NA,"100"
"295",6,"mean",14,0,0,114,114,114,NA,NA,2.70551960000012,44,0.311126983722081,0.44,996,66,100,18,"vrouwelijk","rechts",NA,"100"
"296",6,"mean",15,0,0,115,115,115,NA,NA,1.88910549999855,42,0.55,0.33,1038,64,100,18,"vrouwelijk","rechts",NA,"100"
"297",6,"mean",16,0,0,116,116,116,NA,NA,1.73009079998883,47,0.55,0.33,1085,63,100,18,"vrouwelijk","rechts",NA,"100"
"298",6,"mean",17,0,0,117,117,117,NA,NA,0.822983099991689,55,0.11,0.33,1140,63,100,18,"vrouwelijk","rechts",NA,"100"
"299",6,"mean",18,0,0,118,118,118,NA,NA,0.931906300000264,56,0.11,0.347850542618522,1196,62,100,18,"vrouwelijk","rechts",NA,"100"
"300",6,"mean",19,0,0,119,119,119,NA,NA,1.32929979999608,53,0.11,0.396610640301039,1249,62,100,18,"vrouwelijk","rechts",NA,"100"
"301",7,"total",0,0,0,120,120,120,NA,NA,2.12509139999747,55,0.11,0.11,55,55,100,18,"vrouwelijk","rechts",NA,"100"
"302",7,"total",1,0,0,121,121,121,NA,NA,1.08076710000751,36,0.245967477524977,0.22,91,45,100,18,"vrouwelijk","rechts",NA,"100"
"303",7,"total",2,0,0,122,122,122,NA,NA,1.71562570000242,87,0.44,0.22,178,59,100,18,"vrouwelijk","rechts",NA,"100"
"304",7,"total",3,0,0,123,123,123,NA,NA,0.642431999993278,79,0.11,0.11,257,64,100,18,"vrouwelijk","rechts",NA,"100"
"305",7,"total",4,0,0,124,124,124,NA,NA,0.407374100002926,78,0.155563491861041,0.11,335,67,100,18,"vrouwelijk","rechts",NA,"100"
"306",7,"total",5,0,0,125,125,125,NA,NA,1.80012699999497,68,0.11,0.155563491861041,403,67,100,18,"vrouwelijk","rechts",NA,"100"
"307",7,"total",6,0,0,126,126,126,NA,NA,0.419042299996363,69,0.15556349186104,0.22,472,67,100,18,"vrouwelijk","rechts",NA,"100"
"308",7,"total",7,0,0,127,127,127,NA,NA,0.491289199999301,64,0.11,0.33,536,67,100,18,"vrouwelijk","rechts",NA,"100"
"309",7,"total",8,0,0,128,128,128,NA,NA,0.185838499994134,58,0.15556349186104,0.245967477524977,594,66,100,18,"vrouwelijk","rechts",NA,"100"
"310",7,"total",9,0,0,129,129,129,NA,NA,0.628316000002087,46,0.11,0.245967477524977,640,64,100,18,"vrouwelijk","rechts",NA,"100"
"311",7,"total",10,0,0,130,130,130,NA,NA,0.927081000001635,52,0.245967477524977,0.22,692,62,100,18,"vrouwelijk","rechts",NA,"100"
"312",7,"total",11,0,0,131,131,131,NA,NA,0.689007799999672,61,0.55,0.44,753,62,100,18,"vrouwelijk","rechts",NA,"100"
"313",7,"total",12,0,0,132,132,132,NA,NA,0.95989610000106,60,0.11,0.55,813,62,100,18,"vrouwelijk","rechts",NA,"100"
"314",7,"total",13,0,0,133,133,133,NA,NA,0.440319200002705,59,0.11,0.66,872,62,100,18,"vrouwelijk","rechts",NA,"100"
"315",7,"total",14,0,0,134,134,134,NA,NA,0.47614440000325,55,0.11,0.77,927,61,100,18,"vrouwelijk","rechts",NA,"100"
"316",7,"total",15,0,0,135,135,135,NA,NA,0.544736700001522,48,0.11,0.88,975,60,100,18,"vrouwelijk","rechts",NA,"100"
"317",7,"total",16,0,0,136,136,136,NA,NA,1.27179420000175,53,0.560892146495206,0.33,1028,60,100,18,"vrouwelijk","rechts",NA,"100"
"318",7,"total",17,0,0,137,137,137,NA,NA,0.687744399998337,51,0.11,0.44,1079,59,100,18,"vrouwelijk","rechts",NA,"100"
"319",7,"total",18,0,0,138,138,138,NA,NA,0.3134754000057,52,0.11,0.55,1131,59,100,18,"vrouwelijk","rechts",NA,"100"
"320",7,"total",19,0,0,139,139,139,NA,NA,1.06242809999094,39,0.453541618817943,0.88,1170,58,100,18,"vrouwelijk","rechts",NA,"100"
"321",8,"mean",0,0,0,140,140,140,NA,NA,1.465543600003,78,0.11,0.11,78,78,100,18,"vrouwelijk","rechts",NA,"100"
"322",8,"mean",1,0,0,141,141,141,NA,NA,1.64883020000707,90,0.22,0.22,168,84,100,18,"vrouwelijk","rechts",NA,"100"
"323",8,"mean",2,0,0,142,142,142,NA,NA,0.865984200005187,85,0.11,0.11,253,84,100,18,"vrouwelijk","rechts",NA,"100"
"324",8,"mean",3,0,0,143,143,143,NA,NA,0.734742200002074,87,0.22,0.11,340,85,100,18,"vrouwelijk","rechts",NA,"100"
"325",8,"mean",4,0,0,144,144,144,NA,NA,0.522309000007226,90,0.15556349186104,0.11,430,86,100,18,"vrouwelijk","rechts",NA,"100"
"326",8,"mean",5,0,0,145,145,145,NA,NA,2.11140290000185,85,0.11,0.22,515,85,100,18,"vrouwelijk","rechts",NA,"100"
"327",8,"mean",6,0,0,146,146,146,NA,NA,0.731748999998672,85,0.33,0.11,600,85,100,18,"vrouwelijk","rechts",NA,"100"
"328",8,"mean",7,0,0,147,147,147,NA,NA,1.06058459999622,83,0.245967477524977,0.15556349186104,683,85,100,18,"vrouwelijk","rechts",NA,"100"
"329",8,"mean",8,0,0,148,148,148,NA,NA,1.56439490000776,87,0.245967477524977,0.11,770,85,100,18,"vrouwelijk","rechts",NA,"100"
"330",8,"mean",9,0,0,149,149,149,NA,NA,0.0995832000044174,89,0.11,0.11,859,85,100,18,"vrouwelijk","rechts",NA,"100"
"331",8,"mean",10,0,0,150,150,150,NA,NA,0.662082800001372,80,0.22,0.15556349186104,939,85,100,18,"vrouwelijk","rechts",NA,"100"
"332",8,"mean",11,0,0,151,151,151,NA,NA,0.4510503999918,83,0.22,0.15556349186104,1022,85,100,18,"vrouwelijk","rechts",NA,"100"
"333",8,"mean",12,0,0,152,152,152,NA,NA,0.98356770000828,86,0.396610640301039,0.15556349186104,1108,85,100,18,"vrouwelijk","rechts",NA,"100"
"334",8,"mean",13,0,0,153,153,153,NA,NA,0.542752299996209,77,0.22,0.15556349186104,1185,84,100,18,"vrouwelijk","rechts",NA,"100"
"335",8,"mean",14,0,0,154,154,154,NA,NA,1.48009169999568,72,0.347850542618522,0.245967477524977,1257,83,100,18,"vrouwelijk","rechts",NA,"100"
"336",8,"mean",15,0,0,155,155,155,NA,NA,0.84674979999545,77,0.15556349186104,0.245967477524977,1334,83,100,18,"vrouwelijk","rechts",NA,"100"
"337",8,"mean",16,0,0,156,156,156,NA,NA,0.673414300006698,77,0.11,0.22,1411,83,100,18,"vrouwelijk","rechts",NA,"100"
"338",8,"mean",17,0,0,157,157,157,NA,NA,0.590376099993591,69,0.11,0.245967477524977,1480,82,100,18,"vrouwelijk","rechts",NA,"100"
"339",8,"mean",18,0,0,158,158,158,NA,NA,0.48911950000911,70,0.15556349186104,0.245967477524977,1550,81,100,18,"vrouwelijk","rechts",NA,"100"
"340",8,"mean",19,0,0,159,159,159,NA,NA,0.190674999990733,81,0.22,0.11,1631,81,100,18,"vrouwelijk","rechts",NA,"100"
"341",9,"total",0,0,0,160,160,160,NA,NA,1.97535190000781,66,0.22,0.22,66,66,100,18,"vrouwelijk","rechts",NA,"100"
"342",9,"total",1,0,0,161,161,161,NA,NA,1.01521709999361,65,0.33,0.33,131,65,100,18,"vrouwelijk","rechts",NA,"100"
"343",9,"total",2,0,0,162,162,162,NA,NA,1.40544260000752,67,0.11,0.22,198,66,100,18,"vrouwelijk","rechts",NA,"100"
"344",9,"total",3,0,0,163,163,163,NA,NA,0.275520800001686,68,0.11,0.11,266,66,100,18,"vrouwelijk","rechts",NA,"100"
"345",9,"total",4,0,0,164,164,164,NA,NA,0.747986999995192,64,0.11,0.11,330,66,100,18,"vrouwelijk","rechts",NA,"100"
"346",9,"total",5,0,0,165,165,165,NA,NA,0.904789299995173,65,0.11,0.15556349186104,395,65,100,18,"vrouwelijk","rechts",NA,"100"
"347",9,"total",6,0,0,166,166,166,NA,NA,0.287047300007544,60,0.22,0.15556349186104,455,65,100,18,"vrouwelijk","rechts",NA,"100"
"348",9,"total",7,0,0,167,167,167,NA,NA,0.651120099995751,32,0.245967477524977,0.396610640301039,487,60,100,18,"vrouwelijk","rechts",NA,"100"
"349",9,"total",8,0,0,168,168,168,NA,NA,0.931656399989151,61,0.245967477524977,0.22,548,60,100,18,"vrouwelijk","rechts",NA,"100"
"350",9,"total",9,0,0,169,169,169,NA,NA,0.854644000006374,53,0.11,0.245967477524977,601,60,100,18,"vrouwelijk","rechts",NA,"100"
"351",9,"total",10,0,0,170,170,170,NA,NA,0.378557700008969,64,0.560892146495206,0.22,665,60,100,18,"vrouwelijk","rechts",NA,"100"
"352",9,"total",11,0,0,171,171,171,NA,NA,0.502703399994061,64,0.15556349186104,0.15556349186104,729,60,100,18,"vrouwelijk","rechts",NA,"100"
"353",9,"total",12,0,0,172,172,172,NA,NA,0.622026599987294,52,0.347850542618522,0.245967477524977,781,60,100,18,"vrouwelijk","rechts",NA,"100"
"354",9,"total",13,0,0,173,173,173,NA,NA,0.276468500000192,58,0.11,0.22,839,59,100,18,"vrouwelijk","rechts",NA,"100"
"355",9,"total",14,0,0,174,174,174,NA,NA,0.350409799997578,60,0.11,0.22,899,59,100,18,"vrouwelijk","rechts",NA,"100"
"356",9,"total",15,0,0,175,175,175,NA,NA,0.993613400001777,61,0.11,0.245967477524977,960,60,100,18,"vrouwelijk","rechts",NA,"100"
"357",9,"total",16,0,0,176,176,176,NA,NA,0.602460300011444,63,0.15556349186104,0.245967477524977,1023,60,100,18,"vrouwelijk","rechts",NA,"100"
"358",9,"total",17,0,0,177,177,177,NA,NA,0.933808499990846,65,0.11,0.347850542618522,1088,60,100,18,"vrouwelijk","rechts",NA,"100"
"359",9,"total",18,0,0,178,178,178,NA,NA,0.250619400001597,64,0.11,0.33,1152,60,100,18,"vrouwelijk","rechts",NA,"100"
"360",9,"total",19,0,0,179,179,179,NA,NA,0.636342600002536,69,0.15556349186104,0.453541618817943,1221,61,100,18,"vrouwelijk","rechts",NA,"100"
"361",1,"total",0,1,0,0,0,0,NA,NA,7.10746890000883,51,1.13251931550857,1.13251931550857,51,51,101,18,"vrouwelijk","rechts",NA,"101"
"362",1,"total",1,1,0,1,1,1,NA,NA,1.47609429998556,62,0.15556349186104,0,113,56,101,18,"vrouwelijk","rechts",NA,"101"
"363",1,"total",2,1,0,2,2,2,NA,NA,3.80563270000857,67,0.11,0,180,60,101,18,"vrouwelijk","rechts",NA,"101"
"364",1,"total",3,1,0,3,3,3,NA,NA,2.66219339999952,68,0.11,0,248,62,101,18,"vrouwelijk","rechts",NA,"101"
"365",1,"total",4,1,0,4,4,4,NA,NA,2.35291960000177,66,0.11,0.11,314,62,101,18,"vrouwelijk","rechts",NA,"101"
"366",1,"total",5,1,0,5,5,5,NA,NA,1.64195819999441,65,0.15556349186104,0.11,379,63,101,18,"vrouwelijk","rechts",NA,"101"
"367",1,"total",6,1,0,6,6,6,NA,NA,1.21583590001683,66,0.245967477524977,0.15556349186104,445,63,101,18,"vrouwelijk","rechts",NA,"101"
"368",1,"total",7,1,0,7,7,7,NA,NA,1.61370899999747,68,0.11,0.11,513,64,101,18,"vrouwelijk","rechts",NA,"101"
"369",1,"total",8,1,0,8,8,8,NA,NA,2.04493510001339,67,0.11,0.15556349186104,580,64,101,18,"vrouwelijk","rechts",NA,"101"
"370",1,"total",9,1,0,9,9,9,NA,NA,1.54508999999962,63,0.11,0.15556349186104,643,64,101,18,"vrouwelijk","rechts",NA,"101"
"371",1,"total",10,1,0,10,10,10,NA,NA,1.22452369998791,66,0.15556349186104,0.22,709,64,101,18,"vrouwelijk","rechts",NA,"101"
"372",1,"total",11,1,0,11,11,11,NA,NA,2.13444220001111,63,0.245967477524977,0.11,772,64,101,18,"vrouwelijk","rechts",NA,"101"
"373",1,"total",12,1,0,12,12,12,NA,NA,2.13496360002318,62,0.311126983722081,0.22,834,64,101,18,"vrouwelijk","rechts",NA,"101"
"374",1,"total",13,1,0,13,13,13,NA,NA,2.25521549998666,60,0.15556349186104,0.15556349186104,894,63,101,18,"vrouwelijk","rechts",NA,"101"
"375",1,"total",14,1,0,14,14,14,NA,NA,3.20875869999873,50,0.22,0.347850542618522,944,62,101,18,"vrouwelijk","rechts",NA,"101"
"376",1,"total",15,1,0,15,15,15,NA,NA,1.32003959998838,61,0.592368128784796,0.22,1005,62,101,18,"vrouwelijk","rechts",NA,"101"
"377",1,"total",16,1,0,16,16,16,NA,NA,0.819363599992357,55,0.15556349186104,0.33,1060,62,101,18,"vrouwelijk","rechts",NA,"101"
"378",1,"total",17,1,0,17,17,17,NA,NA,1.30692170001566,61,0.311126983722081,0.15556349186104,1121,62,101,18,"vrouwelijk","rechts",NA,"101"
"379",1,"total",18,1,0,18,18,18,NA,NA,1.74748719998752,58,0.11,0.245967477524977,1179,62,101,18,"vrouwelijk","rechts",NA,"101"
"380",1,"total",19,1,0,19,19,19,NA,NA,1.61662069999147,54,0.245967477524977,0.22,1233,61,101,18,"vrouwelijk","rechts",NA,"101"
"381",2,"total",0,0,0,20,20,20,NA,NA,3.76982280000811,24,0.44,0.44,24,24,101,18,"vrouwelijk","rechts",NA,"101"
"382",2,"total",1,0,0,21,21,21,NA,NA,2.38117389997933,69,1.1,0,93,46,101,18,"vrouwelijk","rechts",NA,"101"
"383",2,"total",2,0,0,22,22,22,NA,NA,1.2222841999901,78,0.11,0,171,57,101,18,"vrouwelijk","rechts",NA,"101"
"384",2,"total",3,0,0,23,23,23,NA,NA,1.75421290000668,82,0.11,0,253,63,101,18,"vrouwelijk","rechts",NA,"101"
"385",2,"total",4,0,0,24,24,24,NA,NA,3.9998295000114,83,0.11,0,336,67,101,18,"vrouwelijk","rechts",NA,"101"
"386",2,"total",5,0,0,25,25,25,NA,NA,0.684479399991687,79,0.11,0.11,415,69,101,18,"vrouwelijk","rechts",NA,"101"
"387",2,"total",6,0,0,26,26,26,NA,NA,1.04775299999164,75,0.15556349186104,0.11,490,70,101,18,"vrouwelijk","rechts",NA,"101"
"388",2,"total",7,0,0,27,27,27,NA,NA,0.666759699990507,78,0.11,0.15556349186104,568,71,101,18,"vrouwelijk","rechts",NA,"101"
"389",2,"total",8,0,0,28,28,28,NA,NA,0.644621799991,89,0.245967477524977,0,657,73,101,18,"vrouwelijk","rechts",NA,"101"
"390",2,"total",9,0,0,29,29,29,NA,NA,0.282546700007515,86,0.11,0,743,74,101,18,"vrouwelijk","rechts",NA,"101"
"391",2,"total",10,0,0,30,30,30,NA,NA,0.363042799988762,79,0.11,0.11,822,74,101,18,"vrouwelijk","rechts",NA,"101"
"392",2,"total",11,0,0,31,31,31,NA,NA,0.67941989999963,68,0.11,0.22,890,74,101,18,"vrouwelijk","rechts",NA,"101"
"393",2,"total",12,0,0,32,32,32,NA,NA,2.4897216000245,89,0.44,0,979,75,101,18,"vrouwelijk","rechts",NA,"101"
"394",2,"total",13,0,0,33,33,33,NA,NA,1.7197077999881,83,0.11,0.11,1062,75,101,18,"vrouwelijk","rechts",NA,"101"
"395",2,"total",14,0,0,34,34,34,NA,NA,1.01814590001595,72,0.11,0.15556349186104,1134,75,101,18,"vrouwelijk","rechts",NA,"101"
"396",2,"total",15,0,0,35,35,35,NA,NA,1.26995880002505,72,0.15556349186104,0.22,1206,75,101,18,"vrouwelijk","rechts",NA,"101"
"397",2,"total",16,0,0,36,36,36,NA,NA,2.27293209999334,60,0.11,0.245967477524977,1266,74,101,18,"vrouwelijk","rechts",NA,"101"
"398",2,"total",17,0,0,37,37,37,NA,NA,0.91184109999449,56,0.15556349186104,0.33,1322,73,101,18,"vrouwelijk","rechts",NA,"101"
"399",2,"total",18,0,0,38,38,38,NA,NA,1.39902849998907,68,0.396610640301039,0.22,1390,73,101,18,"vrouwelijk","rechts",NA,"101"
"400",2,"total",19,0,0,39,39,39,NA,NA,2.10831589999725,78,0.33,0.245967477524977,1468,73,101,18,"vrouwelijk","rechts",NA,"101"
"401",3,"mean",0,0,0,40,40,40,NA,NA,13.4722654000216,75,0.11,0.11,75,75,101,18,"vrouwelijk","rechts",NA,"101"
"402",3,"mean",1,0,0,41,41,41,NA,NA,6.81211050000275,70,0.15556349186104,0.11,145,72,101,18,"vrouwelijk","rechts",NA,"101"
"403",3,"mean",2,0,0,42,42,42,NA,NA,8.43512069998542,68,0.11,0.15556349186104,213,71,101,18,"vrouwelijk","rechts",NA,"101"
"404",3,"mean",3,0,0,43,43,43,NA,NA,2.13440559999435,61,0.11,0.245967477524977,274,68,101,18,"vrouwelijk","rechts",NA,"101"
"405",3,"mean",4,0,0,44,44,44,NA,NA,1.973195700004,75,0.347850542618522,0.11,349,69,101,18,"vrouwelijk","rechts",NA,"101"
"406",3,"mean",5,0,0,45,45,45,NA,NA,0.485461699980078,83,0.15556349186104,0,432,72,101,18,"vrouwelijk","rechts",NA,"101"
"407",3,"mean",6,0,0,46,46,46,NA,NA,1.04788540001027,85,0.11,0,517,73,101,18,"vrouwelijk","rechts",NA,"101"
"408",3,"mean",7,0,0,47,47,47,NA,NA,1.08205199998338,84,0.11,0.11,601,75,101,18,"vrouwelijk","rechts",NA,"101"
"409",3,"mean",8,0,0,48,48,48,NA,NA,2.39004929998191,81,0.11,0.22,682,75,101,18,"vrouwelijk","rechts",NA,"101"
"410",3,"mean",9,0,0,49,49,49,NA,NA,0.996478099987144,79,0.347850542618522,0.15556349186104,761,76,101,18,"vrouwelijk","rechts",NA,"101"
"411",3,"mean",10,0,0,50,50,50,NA,NA,0.894770499988226,80,0.11,0.11,841,76,101,18,"vrouwelijk","rechts",NA,"101"
"412",3,"mean",11,0,0,51,51,51,NA,NA,0.299359099997673,78,0.11,0.11,919,76,101,18,"vrouwelijk","rechts",NA,"101"
"413",3,"mean",12,0,0,52,52,52,NA,NA,0.24188879999565,75,0.11,0.15556349186104,994,76,101,18,"vrouwelijk","rechts",NA,"101"
"414",3,"mean",13,0,0,53,53,53,NA,NA,1.5535208999936,85,0.245967477524977,0,1079,77,101,18,"vrouwelijk","rechts",NA,"101"
"415",3,"mean",14,0,0,54,54,54,NA,NA,0.551301300001796,84,0.11,0.11,1163,77,101,18,"vrouwelijk","rechts",NA,"101"
"416",3,"mean",15,0,0,55,55,55,NA,NA,0.392665299994405,81,0.11,0.155563491861041,1244,77,101,18,"vrouwelijk","rechts",NA,"101"
"417",3,"mean",16,0,0,56,56,56,NA,NA,1.50637809999171,83,0.33,0.11,1327,78,101,18,"vrouwelijk","rechts",NA,"101"
"418",3,"mean",17,0,0,57,57,57,NA,NA,1.06041779997759,77,0.15556349186104,0.245967477524977,1404,78,101,18,"vrouwelijk","rechts",NA,"101"
"419",3,"mean",18,0,0,58,58,58,NA,NA,1.71597699998529,79,0.11,0.22,1483,78,101,18,"vrouwelijk","rechts",NA,"101"
"420",3,"mean",19,0,0,59,59,59,NA,NA,1.9610961000144,69,0.466690475583121,0.22,1552,77,101,18,"vrouwelijk","rechts",NA,"101"
"421",4,"total",0,0,0,60,60,60,NA,NA,4.10613470000681,54,0.983869910099907,0.983869910099907,54,54,101,18,"vrouwelijk","rechts",NA,"101"
"422",4,"total",1,0,0,61,61,61,NA,NA,1.34025989999645,42,0.453541618817943,0.453541618817943,96,48,101,18,"vrouwelijk","rechts",NA,"101"
"423",4,"total",2,0,0,62,62,62,NA,NA,0.7794859999849,52,0.22,0.245967477524977,148,49,101,18,"vrouwelijk","rechts",NA,"101"
"424",4,"total",3,0,0,63,63,63,NA,NA,0.836699299979955,62,0.396610640301039,0,210,52,101,18,"vrouwelijk","rechts",NA,"101"
"425",4,"total",4,0,0,64,64,64,NA,NA,0.733272999990731,68,0.11,0,278,55,101,18,"vrouwelijk","rechts",NA,"101"
"426",4,"total",5,0,0,65,65,65,NA,NA,0.501695100014331,72,0.11,0,350,58,101,18,"vrouwelijk","rechts",NA,"101"
"427",4,"total",6,0,0,66,66,66,NA,NA,0.953187399980379,68,0.22,0.22,418,59,101,18,"vrouwelijk","rechts",NA,"101"
"428",4,"total",7,0,0,67,67,67,NA,NA,1.03909999999451,57,0.11,0.33,475,59,101,18,"vrouwelijk","rechts",NA,"101"
"429",4,"total",8,0,0,68,68,68,NA,NA,0.938427300017793,73,0.22,0,548,60,101,18,"vrouwelijk","rechts",NA,"101"
"430",4,"total",9,0,0,69,69,69,NA,NA,0.305007999995723,75,0.11,0,623,62,101,18,"vrouwelijk","rechts",NA,"101"
"431",4,"total",10,0,0,70,70,70,NA,NA,1.14504860001034,73,0.11,0.11,696,63,101,18,"vrouwelijk","rechts",NA,"101"
"432",4,"total",11,0,0,71,71,71,NA,NA,0.79335349999019,71,0.11,0.15556349186104,767,63,101,18,"vrouwelijk","rechts",NA,"101"
"433",4,"total",12,0,0,72,72,72,NA,NA,2.21178610000061,74,0.11,0,841,64,101,18,"vrouwelijk","rechts",NA,"101"
"434",4,"total",13,0,0,73,73,73,NA,NA,2.4531399999978,67,0.245967477524977,0.22,908,64,101,18,"vrouwelijk","rechts",NA,"101"
"435",4,"total",14,0,0,74,74,74,NA,NA,1.09932340000523,66,0.245967477524977,0.15556349186104,974,64,101,18,"vrouwelijk","rechts",NA,"101"
"436",4,"total",15,0,0,75,75,75,NA,NA,1.12851710000541,71,0.347850542618522,0.11,1045,65,101,18,"vrouwelijk","rechts",NA,"101"
"437",4,"total",16,0,0,76,76,76,NA,NA,0.456557099998463,70,0.11,0.15556349186104,1115,65,101,18,"vrouwelijk","rechts",NA,"101"
"438",4,"total",17,0,0,77,77,77,NA,NA,2.03418799999054,69,0.347850542618522,0.11,1184,65,101,18,"vrouwelijk","rechts",NA,"101"
"439",4,"total",18,0,0,78,78,78,NA,NA,0.83980689998134,65,0.245967477524977,0.22,1249,65,101,18,"vrouwelijk","rechts",NA,"101"
"440",4,"total",19,0,0,79,79,79,NA,NA,0.294551800005138,59,0.11,0.245967477524977,1308,65,101,18,"vrouwelijk","rechts",NA,"101"
"441",5,"mean",0,0,0,80,80,80,NA,NA,3.28842550000991,69,0.11,0.11,69,69,101,18,"vrouwelijk","rechts",NA,"101"
"442",5,"mean",1,0,0,81,81,81,NA,NA,2.21908030001214,70,0.347850542618522,0,139,69,101,18,"vrouwelijk","rechts",NA,"101"
"443",5,"mean",2,0,0,82,82,82,NA,NA,1.25961439998355,63,0.11,0.11,202,67,101,18,"vrouwelijk","rechts",NA,"101"
"444",5,"mean",3,0,0,83,83,83,NA,NA,1.00296069998876,76,0.22,0,278,69,101,18,"vrouwelijk","rechts",NA,"101"
"445",5,"mean",4,0,0,84,84,84,NA,NA,0.451274200022453,68,0.15556349186104,0.15556349186104,346,69,101,18,"vrouwelijk","rechts",NA,"101"
"446",5,"mean",5,0,0,85,85,85,NA,NA,0.286748300015461,73,0.11,0.11,419,69,101,18,"vrouwelijk","rechts",NA,"101"
"447",5,"mean",6,0,0,86,86,86,NA,NA,0.788462199998321,77,0.15556349186104,0,496,70,101,18,"vrouwelijk","rechts",NA,"101"
"448",5,"mean",7,0,0,87,87,87,NA,NA,0.545533299999079,73,0.11,0.11,569,71,101,18,"vrouwelijk","rechts",NA,"101"
"449",5,"mean",8,0,0,88,88,88,NA,NA,1.57460649998393,73,0.15556349186104,0.11,642,71,101,18,"vrouwelijk","rechts",NA,"101"
"450",5,"mean",9,0,0,89,89,89,NA,NA,1.60451569998986,67,0.15556349186104,0.22,709,70,101,18,"vrouwelijk","rechts",NA,"101"
"451",5,"mean",10,0,0,90,90,90,NA,NA,1.98785679999855,67,0.11,0.22,776,70,101,18,"vrouwelijk","rechts",NA,"101"
"452",5,"mean",11,0,0,91,91,91,NA,NA,0.371800399996573,60,0.11,0.33,836,69,101,18,"vrouwelijk","rechts",NA,"101"
"453",5,"mean",12,0,0,92,92,92,NA,NA,0.601918000000296,65,0.396610640301039,0.22,901,69,101,18,"vrouwelijk","rechts",NA,"101"
"454",5,"mean",13,0,0,93,93,93,NA,NA,0.820499699999345,61,0.11,0.245967477524977,962,68,101,18,"vrouwelijk","rechts",NA,"101"
"455",5,"mean",14,0,0,94,94,94,NA,NA,0.523019299987936,55,0.15556349186104,0.33,1017,67,101,18,"vrouwelijk","rechts",NA,"101"
"456",5,"mean",15,0,0,95,95,95,NA,NA,2.25631379999686,63,0.592368128784796,0.245967477524977,1080,67,101,18,"vrouwelijk","rechts",NA,"101"
"457",5,"mean",16,0,0,96,96,96,NA,NA,1.04436739999801,60,0.15556349186104,0.245967477524977,1140,67,101,18,"vrouwelijk","rechts",NA,"101"
"458",5,"mean",17,0,0,97,97,97,NA,NA,0.76652910001576,55,0.11,0.311126983722081,1195,66,101,18,"vrouwelijk","rechts",NA,"101"
"459",5,"mean",18,0,0,98,98,98,NA,NA,0.968341600004351,56,0.55,0.311126983722081,1251,65,101,18,"vrouwelijk","rechts",NA,"101"
"460",5,"mean",19,0,0,99,99,99,NA,NA,0.643618400004925,51,0.15556349186104,0.347850542618522,1302,65,101,18,"vrouwelijk","rechts",NA,"101"
"461",6,"total",0,0,0,100,100,100,NA,NA,4.09718849998899,60,0.311126983722081,0.311126983722081,60,60,101,18,"vrouwelijk","rechts",NA,"101"
"462",6,"total",1,0,0,101,101,101,NA,NA,1.0625595000165,77,0.15556349186104,0,137,68,101,18,"vrouwelijk","rechts",NA,"101"
"463",6,"total",2,0,0,102,102,102,NA,NA,1.01992290001363,77,0.11,0.11,214,71,101,18,"vrouwelijk","rechts",NA,"101"
"464",6,"total",3,0,0,103,103,103,NA,NA,1.29635349998716,69,0.11,0.22,283,70,101,18,"vrouwelijk","rechts",NA,"101"
"465",6,"total",4,0,0,104,104,104,NA,NA,1.46649009999237,72,0.11,0.245967477524977,355,71,101,18,"vrouwelijk","rechts",NA,"101"
"466",6,"total",5,0,0,105,105,105,NA,NA,2.10317380001652,67,0.22,0.245967477524977,422,70,101,18,"vrouwelijk","rechts",NA,"101"
"467",6,"total",6,0,0,106,106,106,NA,NA,0.498723900003824,55,0.15556349186104,0.33,477,68,101,18,"vrouwelijk","rechts",NA,"101"
"468",6,"total",7,0,0,107,107,107,NA,NA,0.657978299976094,83,0.245967477524977,0,560,70,101,18,"vrouwelijk","rechts",NA,"101"
"469",6,"total",8,0,0,108,108,108,NA,NA,0.516392799996538,85,0.11,0,645,71,101,18,"vrouwelijk","rechts",NA,"101"
"470",6,"total",9,0,0,109,109,109,NA,NA,0.618179300014162,83,0.11,0.11,728,72,101,18,"vrouwelijk","rechts",NA,"101"
"471",6,"total",10,0,0,110,110,110,NA,NA,0.456917400006205,77,0.11,0.22,805,73,101,18,"vrouwelijk","rechts",NA,"101"
"472",6,"total",11,0,0,111,111,111,NA,NA,1.08652759998222,85,0.347850542618522,0,890,74,101,18,"vrouwelijk","rechts",NA,"101"
"473",6,"total",12,0,0,112,112,112,NA,NA,0.444798999989871,90,0.11,0,980,75,101,18,"vrouwelijk","rechts",NA,"101"
"474",6,"total",13,0,0,113,113,113,NA,NA,0.697349200025201,90,0.11,0,1070,76,101,18,"vrouwelijk","rechts",NA,"101"
"475",6,"total",14,0,0,114,114,114,NA,NA,0.449586700007785,85,0.11,0.11,1155,77,101,18,"vrouwelijk","rechts",NA,"101"
"476",6,"total",15,0,0,115,115,115,NA,NA,0.795926399994642,87,0.245967477524977,0.11,1242,77,101,18,"vrouwelijk","rechts",NA,"101"
"477",6,"total",16,0,0,116,116,116,NA,NA,0.217605100013316,89,0.11,0.11,1331,78,101,18,"vrouwelijk","rechts",NA,"101"
"478",6,"total",17,0,0,117,117,117,NA,NA,0.405660599994007,86,0.11,0.15556349186104,1417,78,101,18,"vrouwelijk","rechts",NA,"101"
"479",6,"total",18,0,0,118,118,118,NA,NA,0.578327300027013,77,0.15556349186104,0.22,1494,78,101,18,"vrouwelijk","rechts",NA,"101"
"480",6,"total",19,0,0,119,119,119,NA,NA,1.12382979999529,80,0.453541618817943,0.15556349186104,1574,78,101,18,"vrouwelijk","rechts",NA,"101"
"481",7,"mean",0,0,0,120,120,120,NA,NA,3.61401469999691,70,0.11,0.11,70,70,101,18,"vrouwelijk","rechts",NA,"101"
"482",7,"mean",1,0,0,121,121,121,NA,NA,0.726770800014492,71,0.311126983722081,0.245967477524977,141,70,101,18,"vrouwelijk","rechts",NA,"101"
"483",7,"mean",2,0,0,122,122,122,NA,NA,1.50190770003246,66,0.245967477524977,0.22,207,69,101,18,"vrouwelijk","rechts",NA,"101"
"484",7,"mean",3,0,0,123,123,123,NA,NA,1.44057030003751,72,0.396610640301039,0.245967477524977,279,69,101,18,"vrouwelijk","rechts",NA,"101"
"485",7,"mean",4,0,0,124,124,124,NA,NA,1.05729470000369,64,0.245967477524977,0.44,343,68,101,18,"vrouwelijk","rechts",NA,"101"
"486",7,"mean",5,0,0,125,125,125,NA,NA,0.983078100020066,70,0.11,0.33,413,68,101,18,"vrouwelijk","rechts",NA,"101"
"487",7,"mean",6,0,0,126,126,126,NA,NA,0.361813199997414,73,0.11,0,486,69,101,18,"vrouwelijk","rechts",NA,"101"
"488",7,"mean",7,0,0,127,127,127,NA,NA,0.277757700008806,73,0.11,0.11,559,69,101,18,"vrouwelijk","rechts",NA,"101"
"489",7,"mean",8,0,0,128,128,128,NA,NA,0.240869899978861,72,0.11,0.15556349186104,631,70,101,18,"vrouwelijk","rechts",NA,"101"
"490",7,"mean",9,0,0,129,129,129,NA,NA,0.437382100033574,71,0.22,0.11,702,70,101,18,"vrouwelijk","rechts",NA,"101"
"491",7,"mean",10,0,0,130,130,130,NA,NA,0.309989599976689,71,0.11,0.15556349186104,773,70,101,18,"vrouwelijk","rechts",NA,"101"
"492",7,"mean",11,0,0,131,131,131,NA,NA,2.69519509997917,70,0.396610640301039,0.15556349186104,843,70,101,18,"vrouwelijk","rechts",NA,"101"
"493",7,"mean",12,0,0,132,132,132,NA,NA,0.543898200034164,54,0.22,0.347850542618522,897,69,101,18,"vrouwelijk","rechts",NA,"101"
"494",7,"mean",13,0,0,133,133,133,NA,NA,1.47079479997046,59,0.55,0.33,956,68,101,18,"vrouwelijk","rechts",NA,"101"
"495",7,"mean",14,0,0,134,134,134,NA,NA,1.05628730001627,67,0.15556349186104,0.22,1023,68,101,18,"vrouwelijk","rechts",NA,"101"
"496",7,"mean",15,0,0,135,135,135,NA,NA,0.97060869995039,54,0.453541618817943,0.347850542618522,1077,67,101,18,"vrouwelijk","rechts",NA,"101"
"497",7,"mean",16,0,0,136,136,136,NA,NA,0.933953300002031,63,0.11,0.245967477524977,1140,67,101,18,"vrouwelijk","rechts",NA,"101"
"498",7,"mean",17,0,0,137,137,137,NA,NA,0.103610799997114,68,0.11,0.15556349186104,1208,67,101,18,"vrouwelijk","rechts",NA,"101"
"499",7,"mean",18,0,0,138,138,138,NA,NA,0.20730090001598,64,0.245967477524977,0.245967477524977,1272,66,101,18,"vrouwelijk","rechts",NA,"101"
"500",7,"mean",19,0,0,139,139,139,NA,NA,0.639089000003878,66,0.396610640301039,0.22,1338,66,101,18,"vrouwelijk","rechts",NA,"101"
"501",8,"total",0,0,0,140,140,140,NA,NA,2.47626269998727,40,1.08894444302728,1.08894444302728,40,40,101,18,"vrouwelijk","rechts",NA,"101"
"502",8,"total",1,0,0,141,141,141,NA,NA,1.66701789997751,47,0.560892146495206,0,87,43,101,18,"vrouwelijk","rechts",NA,"101"
"503",8,"total",2,0,0,142,142,142,NA,NA,2.9298289999715,68,0.946255779374689,0,155,51,101,18,"vrouwelijk","rechts",NA,"101"
"504",8,"total",3,0,0,143,143,143,NA,NA,1.5970855000196,63,0.15556349186104,0.15556349186104,218,54,101,18,"vrouwelijk","rechts",NA,"101"
"505",8,"total",4,0,0,144,144,144,NA,NA,0.836181699996814,67,0.311126983722081,0.15556349186104,285,57,101,18,"vrouwelijk","rechts",NA,"101"
"506",8,"total",5,0,0,145,145,145,NA,NA,1.06529870000668,60,0.245967477524977,0.11,345,57,101,18,"vrouwelijk","rechts",NA,"101"
"507",8,"total",6,0,0,146,146,146,NA,NA,0.226426200009882,55,0.11,0.15556349186104,400,57,101,18,"vrouwelijk","rechts",NA,"101"
"508",8,"total",7,0,0,147,147,147,NA,NA,0.0513991999905557,63,0.11,0.11,463,57,101,18,"vrouwelijk","rechts",NA,"101"
"509",8,"total",8,0,0,148,148,148,NA,NA,0.869101700023748,77,0.311126983722081,0,540,60,101,18,"vrouwelijk","rechts",NA,"101"
"510",8,"total",9,0,0,149,149,149,NA,NA,0.662069100013468,73,0.11,0,613,61,101,18,"vrouwelijk","rechts",NA,"101"
"511",8,"total",10,0,0,150,150,150,NA,NA,0.49648899998283,73,0.15556349186104,0.11,686,62,101,18,"vrouwelijk","rechts",NA,"101"
"512",8,"total",11,0,0,151,151,151,NA,NA,0.924842900014482,76,0.15556349186104,0,762,63,101,18,"vrouwelijk","rechts",NA,"101"
"513",8,"total",12,0,0,152,152,152,NA,NA,0.637571700033732,65,0.33,0.22,827,63,101,18,"vrouwelijk","rechts",NA,"101"
"514",8,"total",13,0,0,153,153,153,NA,NA,1.28980680002132,67,0.311126983722081,0.22,894,63,101,18,"vrouwelijk","rechts",NA,"101"
"515",8,"total",14,0,0,154,154,154,NA,NA,0.223541699990164,69,0.15556349186104,0.15556349186104,963,64,101,18,"vrouwelijk","rechts",NA,"101"
"516",8,"total",15,0,0,155,155,155,NA,NA,0.345753599947784,73,0.22,0.11,1036,64,101,18,"vrouwelijk","rechts",NA,"101"
"517",8,"total",16,0,0,156,156,156,NA,NA,0.793970500002615,63,0.245967477524977,0.245967477524977,1099,64,101,18,"vrouwelijk","rechts",NA,"101"
"518",8,"total",17,0,0,157,157,157,NA,NA,0.722899899992626,70,0.396610640301039,0.11,1169,64,101,18,"vrouwelijk","rechts",NA,"101"
"519",8,"total",18,0,0,158,158,158,NA,NA,1.81048129999544,61,0.453541618817943,0.245967477524977,1230,64,101,18,"vrouwelijk","rechts",NA,"101"
"520",8,"total",19,0,0,159,159,159,NA,NA,1.73926860000938,56,0.11,0.245967477524977,1286,64,101,18,"vrouwelijk","rechts",NA,"101"
"521",9,"mean",0,0,0,160,160,160,NA,NA,2.6113571000169,64,0.11,0.11,64,64,101,18,"vrouwelijk","rechts",NA,"101"
"522",9,"mean",1,0,0,161,161,161,NA,NA,1.71897619997617,67,0.11,0,131,65,101,18,"vrouwelijk","rechts",NA,"101"
"523",9,"mean",2,0,0,162,162,162,NA,NA,0.540439000003971,70,0.11,0,201,67,101,18,"vrouwelijk","rechts",NA,"101"
"524",9,"mean",3,0,0,163,163,163,NA,NA,1.09796149999602,72,0.11,0,273,68,101,18,"vrouwelijk","rechts",NA,"101"
"525",9,"mean",4,0,0,164,164,164,NA,NA,0.775276400032453,67,0.22,0.22,340,68,101,18,"vrouwelijk","rechts",NA,"101"
"526",9,"mean",5,0,0,165,165,165,NA,NA,1.05888540000888,73,0.33,0,413,68,101,18,"vrouwelijk","rechts",NA,"101"
"527",9,"mean",6,0,0,166,166,166,NA,NA,0.0960160000249744,71,0.11,0.11,484,69,101,18,"vrouwelijk","rechts",NA,"101"
"528",9,"mean",7,0,0,167,167,167,NA,NA,0.614642200001981,67,0.245967477524977,0.15556349186104,551,68,101,18,"vrouwelijk","rechts",NA,"101"
"529",9,"mean",8,0,0,168,168,168,NA,NA,0.196254600014072,67,0.11,0.11,618,68,101,18,"vrouwelijk","rechts",NA,"101"
"530",9,"mean",9,0,0,169,169,169,NA,NA,0.460811799974181,64,0.11,0.15556349186104,682,68,101,18,"vrouwelijk","rechts",NA,"101"
"531",9,"mean",10,0,0,170,170,170,NA,NA,1.46326839999529,63,0.560892146495206,0.33,745,67,101,18,"vrouwelijk","rechts",NA,"101"
"532",9,"mean",11,0,0,171,171,171,NA,NA,1.65416600002209,63,0.396610640301039,0.22,808,67,101,18,"vrouwelijk","rechts",NA,"101"
"533",9,"mean",12,0,0,172,172,172,NA,NA,0.170355800015386,60,0.11,0.33,868,66,101,18,"vrouwelijk","rechts",NA,"101"
"534",9,"mean",13,0,0,173,173,173,NA,NA,0.262982099957298,61,0.15556349186104,0.22,929,66,101,18,"vrouwelijk","rechts",NA,"101"
"535",9,"mean",14,0,0,174,174,174,NA,NA,0.349732999980915,58,0.11,0.245967477524977,987,65,101,18,"vrouwelijk","rechts",NA,"101"
"536",9,"mean",15,0,0,175,175,175,NA,NA,1.0764632000355,67,0.453541618817943,0.245967477524977,1054,65,101,18,"vrouwelijk","rechts",NA,"101"
"537",9,"mean",16,0,0,176,176,176,NA,NA,0.598008100001607,66,0.11,0.347850542618522,1120,65,101,18,"vrouwelijk","rechts",NA,"101"
"538",9,"mean",17,0,0,177,177,177,NA,NA,0.465312600019388,59,0.15556349186104,0.44,1179,65,101,18,"vrouwelijk","rechts",NA,"101"
"539",9,"mean",18,0,0,178,178,178,NA,NA,0.418156100029591,64,0.11,0.453541618817943,1243,65,101,18,"vrouwelijk","rechts",NA,"101"
"540",9,"mean",19,0,0,179,179,179,NA,NA,0.66448690003017,67,0.15556349186104,0.396610640301039,1310,65,101,18,"vrouwelijk","rechts",NA,"101"
"541",1,"total",0,1,0,0,0,0,NA,NA,8.00817950000055,53,0.245967477524977,0.245967477524977,53,53,102,18,"mannelijk","rechts",NA,"102"
"542",1,"total",1,1,0,1,1,1,NA,NA,8.21510450000642,53,0.11,0.15556349186104,106,53,102,18,"mannelijk","rechts",NA,"102"
"543",1,"total",2,1,0,2,2,2,NA,NA,2.89372599999479,52,0.11,0.11,158,52,102,18,"mannelijk","rechts",NA,"102"
"544",1,"total",3,1,0,3,3,3,NA,NA,9.33771219999471,31,0.793221280602078,0.704343666117613,189,47,102,18,"mannelijk","rechts",NA,"102"
"545",1,"total",4,1,0,4,4,4,NA,NA,4.54483849999087,69,0.77,0.641404708432983,258,51,102,18,"mannelijk","rechts",NA,"102"
"546",1,"total",5,1,0,5,5,5,NA,NA,3.07328840000264,62,0.245967477524977,0.245967477524977,320,53,102,18,"mannelijk","rechts",NA,"102"
"547",1,"total",6,1,0,6,6,6,NA,NA,4.39481860000524,60,0.737902432574931,0.491934955049954,380,54,102,18,"mannelijk","rechts",NA,"102"
"548",1,"total",7,1,0,7,7,7,NA,NA,3.53394510000362,39,0.88684835231284,1.32457540366715,419,52,102,18,"mannelijk","rechts",NA,"102"
"549",1,"total",8,1,0,8,8,8,NA,NA,5.0013345000043,49,1.1,0.88684835231284,468,52,102,18,"mannelijk","rechts",NA,"102"
"550",1,"total",9,1,0,9,9,9,NA,NA,2.0063172000082,6,1.5556349186104,1.01414989030222,474,47,102,18,"mannelijk","rechts",NA,"102"
"551",1,"total",10,1,0,10,10,10,NA,NA,3.14403300000413,65,1.1054863183233,0.11,539,49,102,18,"mannelijk","rechts",NA,"102"
"552",1,"total",11,1,0,11,11,11,NA,NA,1.55902820000483,68,0.11,0.11,607,50,102,18,"mannelijk","rechts",NA,"102"
"553",1,"total",12,1,0,12,12,12,NA,NA,1.15749309999228,67,0.11,0.11,674,51,102,18,"mannelijk","rechts",NA,"102"
"554",1,"total",13,1,0,13,13,13,NA,NA,1.29131119999511,71,0.33,0.11,745,53,102,18,"mannelijk","rechts",NA,"102"
"555",1,"total",14,1,0,14,14,14,NA,NA,1.07432730001165,46,0.77,0.77,791,52,102,18,"mannelijk","rechts",NA,"102"
"556",1,"total",15,1,0,15,15,15,NA,NA,2.63600070000393,72,0.55,0.22,863,53,102,18,"mannelijk","rechts",NA,"102"
"557",1,"total",16,1,0,16,16,16,NA,NA,1.19335659999342,67,0.22,0.22,930,54,102,18,"mannelijk","rechts",NA,"102"
"558",1,"total",17,1,0,17,17,17,NA,NA,1.15715729999647,70,0.11,0.11,1000,55,102,18,"mannelijk","rechts",NA,"102"
"559",1,"total",18,1,0,18,18,18,NA,NA,2.03893109998899,68,0.491934955049954,0.245967477524977,1068,56,102,18,"mannelijk","rechts",NA,"102"
"560",1,"total",19,1,0,19,19,19,NA,NA,1.58248100000492,74,0.347850542618522,0.11,1142,57,102,18,"mannelijk","rechts",NA,"102"
"561",2,"mean",0,0,0,20,20,20,NA,NA,3.43197790000704,28,0.99,0.99,28,28,102,18,"mannelijk","rechts",NA,"102"
"562",2,"mean",1,0,0,21,21,21,NA,NA,3.87919409999449,63,0.622253967444162,0.622253967444162,91,45,102,18,"mannelijk","rechts",NA,"102"
"563",2,"mean",2,0,0,22,22,22,NA,NA,1.98896679999598,69,0.11,0.11,160,53,102,18,"mannelijk","rechts",NA,"102"
"564",2,"mean",3,0,0,23,23,23,NA,NA,5.3639278000046,72,0.11,0.11,232,58,102,18,"mannelijk","rechts",NA,"102"
"565",2,"mean",4,0,0,24,24,24,NA,NA,2.04899029999797,69,0.11,0.11,301,60,102,18,"mannelijk","rechts",NA,"102"
"566",2,"mean",5,0,0,25,25,25,NA,NA,1.53492420000839,9,1.32457540366715,1.25419296760905,310,51,102,18,"mannelijk","rechts",NA,"102"
"567",2,"mean",6,0,0,26,26,26,NA,NA,2.34658469998976,29,0.88684835231284,0.88684835231284,339,48,102,18,"mannelijk","rechts",NA,"102"
"568",2,"mean",7,0,0,27,27,27,NA,NA,2.35870599999907,48,1.24450793488832,0.77,387,48,102,18,"mannelijk","rechts",NA,"102"
"569",2,"mean",8,0,0,28,28,28,NA,NA,5.86996660000295,74,0.777817459305202,0.11,461,51,102,18,"mannelijk","rechts",NA,"102"
"570",2,"mean",9,0,0,29,29,29,NA,NA,3.0960783999908,64,0.22,0.22,525,52,102,18,"mannelijk","rechts",NA,"102"
"571",2,"mean",10,0,0,30,30,30,NA,NA,2.55741710000439,60,0.55,0.33,585,53,102,18,"mannelijk","rechts",NA,"102"
"572",2,"mean",11,0,0,31,31,31,NA,NA,2.41529279999668,55,0.592368128784796,0.245967477524977,640,53,102,18,"mannelijk","rechts",NA,"102"
"573",2,"mean",12,0,0,32,32,32,NA,NA,2.58377820000169,72,0.245967477524977,0.11,712,54,102,18,"mannelijk","rechts",NA,"102"
"574",2,"mean",13,0,0,33,33,33,NA,NA,2.91389749999507,54,0.99,0.88,766,54,102,18,"mannelijk","rechts",NA,"102"
"575",2,"mean",14,0,0,34,34,34,NA,NA,2.21326550000231,49,0.592368128784796,0.347850542618522,815,54,102,18,"mannelijk","rechts",NA,"102"
"576",2,"mean",15,0,0,35,35,35,NA,NA,1.80295399999886,53,0.453541618817943,0.245967477524977,868,54,102,18,"mannelijk","rechts",NA,"102"
"577",2,"mean",16,0,0,36,36,36,NA,NA,1.54506089999632,72,0.396610640301039,0.11,940,55,102,18,"mannelijk","rechts",NA,"102"
"578",2,"mean",17,0,0,37,37,37,NA,NA,1.28095410000242,25,0.99,0.88684835231284,965,53,102,18,"mannelijk","rechts",NA,"102"
"579",2,"mean",18,0,0,38,38,38,NA,NA,3.30296290000842,51,1.08337435819757,0.55,1016,53,102,18,"mannelijk","rechts",NA,"102"
"580",2,"mean",19,0,0,39,39,39,NA,NA,2.6365938999952,57,0.641404708432983,0.22,1073,53,102,18,"mannelijk","rechts",NA,"102"
"581",3,"total",0,0,0,40,40,40,NA,NA,5.80609090000507,41,0.55,0.55,41,41,102,18,"mannelijk","rechts",NA,"102"
"582",3,"total",1,0,0,41,41,41,NA,NA,1.61971210000047,5,1.1,0.55,46,23,102,18,"mannelijk","rechts",NA,"102"
"583",3,"total",2,0,0,42,42,42,NA,NA,4.39590009998938,48,0.939840411984928,0.466690475583121,94,31,102,18,"mannelijk","rechts",NA,"102"
"584",3,"total",3,0,0,43,43,43,NA,NA,4.62548859999515,71,0.66,0.466690475583121,165,41,102,18,"mannelijk","rechts",NA,"102"
"585",3,"total",4,0,0,44,44,44,NA,NA,3.85163950000424,24,0.66,0.66,189,37,102,18,"mannelijk","rechts",NA,"102"
"586",3,"total",5,0,0,45,45,45,NA,NA,1.09354650000751,17,0.66,0.933380951166243,206,34,102,18,"mannelijk","rechts",NA,"102"
"587",3,"total",6,0,0,46,46,46,NA,NA,1.07150809999439,80,1.08894444302728,0.15556349186104,286,40,102,18,"mannelijk","rechts",NA,"102"
"588",3,"total",7,0,0,47,47,47,NA,NA,1.53645519999554,87,0.15556349186104,0.15556349186104,373,46,102,18,"mannelijk","rechts",NA,"102"
"589",3,"total",8,0,0,48,48,48,NA,NA,1.08947669999907,81,0.11,0.11,454,50,102,18,"mannelijk","rechts",NA,"102"
"590",3,"total",9,0,0,49,49,49,NA,NA,0.851939500003937,87,0.15556349186104,0.11,541,54,102,18,"mannelijk","rechts",NA,"102"
"591",3,"total",10,0,0,50,50,50,NA,NA,0.828678899997612,81,0.11,0.11,622,56,102,18,"mannelijk","rechts",NA,"102"
"592",3,"total",11,0,0,51,51,51,NA,NA,5.25353829999221,73,0.311126983722081,0.22,695,57,102,18,"mannelijk","rechts",NA,"102"
"593",3,"total",12,0,0,52,52,52,NA,NA,2.74622240000463,77,0.245967477524977,0.15556349186104,772,59,102,18,"mannelijk","rechts",NA,"102"
"594",3,"total",13,0,0,53,53,53,NA,NA,0.96948749999865,72,0.15556349186104,0.22,844,60,102,18,"mannelijk","rechts",NA,"102"
"595",3,"total",14,0,0,54,54,54,NA,NA,1.83273189999454,45,1.01414989030222,0.99,889,59,102,18,"mannelijk","rechts",NA,"102"
"596",3,"total",15,0,0,55,55,55,NA,NA,2.1854205000127,19,0.99,1.40007142674936,908,56,102,18,"mannelijk","rechts",NA,"102"
"597",3,"total",16,0,0,56,56,56,NA,NA,2.33435160000226,70,1.25419296760905,0.22,978,57,102,18,"mannelijk","rechts",NA,"102"
"598",3,"total",17,0,0,57,57,57,NA,NA,1.10925399999542,65,0.466690475583121,0.33,1043,57,102,18,"mannelijk","rechts",NA,"102"
"599",3,"total",18,0,0,58,58,58,NA,NA,0.949358700003358,70,0.347850542618522,0.311126983722081,1113,58,102,18,"mannelijk","rechts",NA,"102"
"600",3,"total",19,0,0,59,59,59,NA,NA,1.13586579999537,72,0.11,0.245967477524977,1185,59,102,18,"mannelijk","rechts",NA,"102"
"601",4,"mean",0,0,0,60,60,60,NA,NA,5.42468999999983,58,0.88,0.88,58,58,102,18,"mannelijk","rechts",NA,"102"
"602",4,"mean",1,0,0,61,61,61,NA,NA,1.21892300000763,7,0.99,0.99,65,32,102,18,"mannelijk","rechts",NA,"102"
"603",4,"mean",2,0,0,62,62,62,NA,NA,1.95344070000283,29,1.5556349186104,1.1054863183233,94,31,102,18,"mannelijk","rechts",NA,"102"
"604",4,"mean",3,0,0,63,63,63,NA,NA,1.7910838000098,63,1.1,1.47989864517811,157,39,102,18,"mannelijk","rechts",NA,"102"
"605",4,"mean",4,0,0,64,64,64,NA,NA,1.21557040000334,65,0.245967477524977,0.245967477524977,222,44,102,18,"mannelijk","rechts",NA,"102"
"606",4,"mean",5,0,0,65,65,65,NA,NA,1.12572110000474,61,0.22,0.22,283,47,102,18,"mannelijk","rechts",NA,"102"
"607",4,"mean",6,0,0,66,66,66,NA,NA,0.918061699994723,62,0.396610640301039,0.55,345,49,102,18,"mannelijk","rechts",NA,"102"
"608",4,"mean",7,0,0,67,67,67,NA,NA,1.7670092999906,58,0.33,0.83773504164503,403,50,102,18,"mannelijk","rechts",NA,"102"
"609",4,"mean",8,0,0,68,68,68,NA,NA,1.0603354999912,73,0.466690475583121,0.793221280602078,476,52,102,18,"mannelijk","rechts",NA,"102"
"610",4,"mean",9,0,0,69,69,69,NA,NA,1.18305479999981,77,0.15556349186104,0.15556349186104,553,55,102,18,"mannelijk","rechts",NA,"102"
"611",4,"mean",10,0,0,70,70,70,NA,NA,1.03265459999966,76,0.11,0.11,629,57,102,18,"mannelijk","rechts",NA,"102"
"612",4,"mean",11,0,0,71,71,71,NA,NA,0.855253599991556,78,0.11,0.11,707,58,102,18,"mannelijk","rechts",NA,"102"
"613",4,"mean",12,0,0,72,72,72,NA,NA,0.485856800005422,77,0.11,0.11,784,60,102,18,"mannelijk","rechts",NA,"102"
"614",4,"mean",13,0,0,73,73,73,NA,NA,0.450862799989409,72,0.11,0.15556349186104,856,61,102,18,"mannelijk","rechts",NA,"102"
"615",4,"mean",14,0,0,74,74,74,NA,NA,1.48763090001012,76,0.33,0.11,932,62,102,18,"mannelijk","rechts",NA,"102"
"616",4,"mean",15,0,0,75,75,75,NA,NA,1.78351680000196,72,0.11,0.15556349186104,1004,62,102,18,"mannelijk","rechts",NA,"102"
"617",4,"mean",16,0,0,76,76,76,NA,NA,0.906227300001774,75,0.33,0.11,1079,63,102,18,"mannelijk","rechts",NA,"102"
"618",4,"mean",17,0,0,77,77,77,NA,NA,1.57888519999688,65,0.15556349186104,0.245967477524977,1144,63,102,18,"mannelijk","rechts",NA,"102"
"619",4,"mean",18,0,0,78,78,78,NA,NA,1.30539890000364,75,0.560892146495206,0.245967477524977,1219,64,102,18,"mannelijk","rechts",NA,"102"
"620",4,"mean",19,0,0,79,79,79,NA,NA,1.23296200000914,57,0.245967477524977,0.347850542618522,1276,63,102,18,"mannelijk","rechts",NA,"102"
"621",5,"total",0,0,0,80,80,80,NA,NA,2.36144379999314,83,0.11,0.11,83,83,102,18,"mannelijk","rechts",NA,"102"
"622",5,"total",1,0,0,81,81,81,NA,NA,0.455600300003425,82,0.11,0.11,165,82,102,18,"mannelijk","rechts",NA,"102"
"623",5,"total",2,0,0,82,82,82,NA,NA,0.48145459999796,81,0.11,0.15556349186104,246,82,102,18,"mannelijk","rechts",NA,"102"
"624",5,"total",3,0,0,83,83,83,NA,NA,0.448255600000266,76,0.22,0.15556349186104,322,80,102,18,"mannelijk","rechts",NA,"102"
"625",5,"total",4,0,0,84,84,84,NA,NA,0.977941500008456,78,0.245967477524977,0.245967477524977,400,80,102,18,"mannelijk","rechts",NA,"102"
"626",5,"total",5,0,0,85,85,85,NA,NA,0.483204400006798,77,0.11,0.22,477,79,102,18,"mannelijk","rechts",NA,"102"
"627",5,"total",6,0,0,86,86,86,NA,NA,0.632073200002196,83,0.33,0.11,560,80,102,18,"mannelijk","rechts",NA,"102"
"628",5,"total",7,0,0,87,87,87,NA,NA,0.463906700009829,82,0.11,0.22,642,80,102,18,"mannelijk","rechts",NA,"102"
"629",5,"total",8,0,0,88,88,88,NA,NA,0.497176899996703,81,0.11,0.33,723,80,102,18,"mannelijk","rechts",NA,"102"
"630",5,"total",9,0,0,89,89,89,NA,NA,0.650861899994197,79,0.15556349186104,0.15556349186104,802,80,102,18,"mannelijk","rechts",NA,"102"
"631",5,"total",10,0,0,90,90,90,NA,NA,1.16263599999365,81,0.11,0.11,883,80,102,18,"mannelijk","rechts",NA,"102"
"632",5,"total",11,0,0,91,91,91,NA,NA,0.322880599997006,77,0.22,0.245967477524977,960,80,102,18,"mannelijk","rechts",NA,"102"
"633",5,"total",12,0,0,92,92,92,NA,NA,0.432508799989591,81,0.22,0.245967477524977,1041,80,102,18,"mannelijk","rechts",NA,"102"
"634",5,"total",13,0,0,93,93,93,NA,NA,1.34692270000232,81,0.11,0.15556349186104,1122,80,102,18,"mannelijk","rechts",NA,"102"
"635",5,"total",14,0,0,94,94,94,NA,NA,1.08920629999193,81,0.11,0.11,1203,80,102,18,"mannelijk","rechts",NA,"102"
"636",5,"total",15,0,0,95,95,95,NA,NA,0.496187299999292,79,0.11,0.11,1282,80,102,18,"mannelijk","rechts",NA,"102"
"637",5,"total",16,0,0,96,96,96,NA,NA,1.09970669999893,72,0.11,0.22,1354,79,102,18,"mannelijk","rechts",NA,"102"
"638",5,"total",17,0,0,97,97,97,NA,NA,0.693154599997797,78,0.33,0.311126983722081,1432,79,102,18,"mannelijk","rechts",NA,"102"
"639",5,"total",18,0,0,98,98,98,NA,NA,0.954643899996881,77,0.11,0.245967477524977,1509,79,102,18,"mannelijk","rechts",NA,"102"
"640",5,"total",19,0,0,99,99,99,NA,NA,0.872968399999081,75,0.11,0.22,1584,79,102,18,"mannelijk","rechts",NA,"102"
"641",6,"mean",0,0,0,100,100,100,NA,NA,1.56053100001009,68,1.1,1.1,68,68,102,18,"mannelijk","rechts",NA,"102"
"642",6,"mean",1,0,0,101,101,101,NA,NA,0.870814100009738,68,0.15556349186104,0.15556349186104,136,68,102,18,"mannelijk","rechts",NA,"102"
"643",6,"mean",2,0,0,102,102,102,NA,NA,1.28912339999806,54,1.1,0.996092365195116,190,63,102,18,"mannelijk","rechts",NA,"102"
"644",6,"mean",3,0,0,103,103,103,NA,NA,1.14245260000462,64,1.5556349186104,0.996092365195116,254,63,102,18,"mannelijk","rechts",NA,"102"
"645",6,"mean",4,0,0,104,104,104,NA,NA,2.11042559999623,67,0.592368128784796,0.453541618817943,321,64,102,18,"mannelijk","rechts",NA,"102"
"646",6,"mean",5,0,0,105,105,105,NA,NA,1.26948030000494,48,0.33,0.622253967444162,369,61,102,18,"mannelijk","rechts",NA,"102"
"647",6,"mean",6,0,0,106,106,106,NA,NA,1.46474630000012,9,0.777817459305202,1.40007142674936,378,54,102,18,"mannelijk","rechts",NA,"102"
"648",6,"mean",7,0,0,107,107,107,NA,NA,1.3481662000122,72,1.40868733223523,0.15556349186104,450,56,102,18,"mannelijk","rechts",NA,"102"
"649",6,"mean",8,0,0,108,108,108,NA,NA,0.436396799996146,71,0.11,0.11,521,57,102,18,"mannelijk","rechts",NA,"102"
"650",6,"mean",9,0,0,109,109,109,NA,NA,0.301043999992544,70,0.33,0.22,591,59,102,18,"mannelijk","rechts",NA,"102"
"651",6,"mean",10,0,0,110,110,110,NA,NA,0.426705099991523,71,0.11,0.11,662,60,102,18,"mannelijk","rechts",NA,"102"
"652",6,"mean",11,0,0,111,111,111,NA,NA,1.34033490000002,70,0.15556349186104,0.11,732,61,102,18,"mannelijk","rechts",NA,"102"
"653",6,"mean",12,0,0,112,112,112,NA,NA,0.733900000006543,71,0.11,0.15556349186104,803,61,102,18,"mannelijk","rechts",NA,"102"
"654",6,"mean",13,0,0,113,113,113,NA,NA,0.285373999999138,66,0.11,0.245967477524977,869,62,102,18,"mannelijk","rechts",NA,"102"
"655",6,"mean",14,0,0,114,114,114,NA,NA,0.752936899996712,69,0.311126983722081,0.33,938,62,102,18,"mannelijk","rechts",NA,"102"
"656",6,"mean",15,0,0,115,115,115,NA,NA,2.12493269999686,51,0.55,0.44,989,61,102,18,"mannelijk","rechts",NA,"102"
"657",6,"mean",16,0,0,116,116,116,NA,NA,1.97270460000436,64,0.396610640301039,0.15556349186104,1053,61,102,18,"mannelijk","rechts",NA,"102"
"658",6,"mean",17,0,0,117,117,117,NA,NA,2.62167009999393,65,0.245967477524977,0.22,1118,62,102,18,"mannelijk","rechts",NA,"102"
"659",6,"mean",18,0,0,118,118,118,NA,NA,1.05563970000367,70,0.245967477524977,0.245967477524977,1188,62,102,18,"mannelijk","rechts",NA,"102"
"660",6,"mean",19,0,0,119,119,119,NA,NA,1.95201949999318,35,0.704343666117613,0.859127464349732,1223,61,102,18,"mannelijk","rechts",NA,"102"
"661",7,"total",0,0,0,120,120,120,NA,NA,2.02414070001396,44,0.33,0.33,44,44,102,18,"mannelijk","rechts",NA,"102"
"662",7,"total",1,0,0,121,121,121,NA,NA,1.03585980000207,15,0.641404708432983,0.396610640301039,59,29,102,18,"mannelijk","rechts",NA,"102"
"663",7,"total",2,0,0,122,122,122,NA,NA,1.25483950000489,51,0.77,0.491934955049954,110,36,102,18,"mannelijk","rechts",NA,"102"
"664",7,"total",3,0,0,123,123,123,NA,NA,1.08831990000908,66,0.777817459305202,0.777817459305202,176,44,102,18,"mannelijk","rechts",NA,"102"
"665",7,"total",4,0,0,124,124,124,NA,NA,2.82849250000436,8,0.88684835231284,0.88684835231284,184,36,102,18,"mannelijk","rechts",NA,"102"
"666",7,"total",5,0,0,125,125,125,NA,NA,0.952736899998854,70,0.88684835231284,0.22,254,42,102,18,"mannelijk","rechts",NA,"102"
"667",7,"total",6,0,0,126,126,126,NA,NA,0.418974000000162,73,0.11,0.11,327,46,102,18,"mannelijk","rechts",NA,"102"
"668",7,"total",7,0,0,127,127,127,NA,NA,0.461150800008909,69,0.15556349186104,0.15556349186104,396,49,102,18,"mannelijk","rechts",NA,"102"
"669",7,"total",8,0,0,128,128,128,NA,NA,0.749384599999757,62,0.15556349186104,0.22,458,50,102,18,"mannelijk","rechts",NA,"102"
"670",7,"total",9,0,0,129,129,129,NA,NA,0.890315099997679,64,0.396610640301039,0.33,522,52,102,18,"mannelijk","rechts",NA,"102"
"671",7,"total",10,0,0,130,130,130,NA,NA,0.562535799996112,67,0.11,0.22,589,53,102,18,"mannelijk","rechts",NA,"102"
"672",7,"total",11,0,0,131,131,131,NA,NA,0.46597560000373,71,0.11,0.11,660,55,102,18,"mannelijk","rechts",NA,"102"
"673",7,"total",12,0,0,132,132,132,NA,NA,1.1660428000032,52,0.641404708432983,0.641404708432983,712,54,102,18,"mannelijk","rechts",NA,"102"
"674",7,"total",13,0,0,133,133,133,NA,NA,0.969085100005032,66,0.33,0.396610640301039,778,55,102,18,"mannelijk","rechts",NA,"102"
"675",7,"total",14,0,0,134,134,134,NA,NA,0.802316899993457,63,0.22,0.33,841,56,102,18,"mannelijk","rechts",NA,"102"
"676",7,"total",15,0,0,135,135,135,NA,NA,1.35115159999987,17,1.12178429299041,1.22983738762488,858,53,102,18,"mannelijk","rechts",NA,"102"
"677",7,"total",16,0,0,136,136,136,NA,NA,1.5112894000049,62,0.983869910099907,0.245967477524977,920,54,102,18,"mannelijk","rechts",NA,"102"
"678",7,"total",17,0,0,137,137,137,NA,NA,1.09364249999635,54,0.15556349186104,0.33,974,54,102,18,"mannelijk","rechts",NA,"102"
"679",7,"total",18,0,0,138,138,138,NA,NA,0.975994599997648,18,0.347850542618522,0.66,992,52,102,18,"mannelijk","rechts",NA,"102"
"680",7,"total",19,0,0,139,139,139,NA,NA,0.821800799996709,52,0.33,0.22,1044,52,102,18,"mannelijk","rechts",NA,"102"
"681",8,"mean",0,0,0,140,140,140,NA,NA,4.07308950000152,72,0.946255779374689,0.946255779374689,72,72,102,18,"mannelijk","rechts",NA,"102"
"682",8,"mean",1,0,0,141,141,141,NA,NA,0.674507500007167,61,0.11,0.11,133,66,102,18,"mannelijk","rechts",NA,"102"
"683",8,"mean",2,0,0,142,142,142,NA,NA,0.693901499995263,69,0.15556349186104,0.11,202,67,102,18,"mannelijk","rechts",NA,"102"
"684",8,"mean",3,0,0,143,143,143,NA,NA,1.56085290000192,12,1.40868733223523,1.47989864517811,214,53,102,18,"mannelijk","rechts",NA,"102"
"685",8,"mean",4,0,0,144,144,144,NA,NA,1.17331759999797,44,0.99,1.1,258,51,102,18,"mannelijk","rechts",NA,"102"
"686",8,"mean",5,0,0,145,145,145,NA,NA,1.1386807999952,35,1.5556349186104,1.1,293,48,102,18,"mannelijk","rechts",NA,"102"
"687",8,"mean",6,0,0,146,146,146,NA,NA,2.20116659998894,56,0.88684835231284,0.245967477524977,349,49,102,18,"mannelijk","rechts",NA,"102"
"688",8,"mean",7,0,0,147,147,147,NA,NA,0.602802900000825,52,0.245967477524977,0.22,401,50,102,18,"mannelijk","rechts",NA,"102"
"689",8,"mean",8,0,0,148,148,148,NA,NA,1.10438299999805,65,0.311126983722081,0.22,466,51,102,18,"mannelijk","rechts",NA,"102"
"690",8,"mean",9,0,0,149,149,149,NA,NA,1.40538799999922,53,0.22,0.33,519,51,102,18,"mannelijk","rechts",NA,"102"
"691",8,"mean",10,0,0,150,150,150,NA,NA,1.61481939999794,38,0.66,0.737902432574931,557,50,102,18,"mannelijk","rechts",NA,"102"
"692",8,"mean",11,0,0,151,151,151,NA,NA,1.29931899999792,28,0.311126983722081,0.88684835231284,585,48,102,18,"mannelijk","rechts",NA,"102"
"693",8,"mean",12,0,0,152,152,152,NA,NA,1.94408129999647,36,0.704343666117613,0.793221280602078,621,47,102,18,"mannelijk","rechts",NA,"102"
"694",8,"mean",13,0,0,153,153,153,NA,NA,1.4875880000036,53,0.55,0.245967477524977,674,48,102,18,"mannelijk","rechts",NA,"102"
"695",8,"mean",14,0,0,154,154,154,NA,NA,1.00990499999898,46,0.396610640301039,0.33,720,48,102,18,"mannelijk","rechts",NA,"102"
"696",8,"mean",15,0,0,155,155,155,NA,NA,0.624145599998883,51,0.15556349186104,0.22,771,48,102,18,"mannelijk","rechts",NA,"102"
"697",8,"mean",16,0,0,156,156,156,NA,NA,1.71220380000887,46,0.245967477524977,0.396610640301039,817,48,102,18,"mannelijk","rechts",NA,"102"
"698",8,"mean",17,0,0,157,157,157,NA,NA,1.54312339999888,29,0.491934955049954,0.669103878332804,846,47,102,18,"mannelijk","rechts",NA,"102"
"699",8,"mean",18,0,0,158,158,158,NA,NA,0.733379800003604,34,0.396610640301039,1.04355162785557,880,46,102,18,"mannelijk","rechts",NA,"102"
"700",8,"mean",19,0,0,159,159,159,NA,NA,1.44188630000281,12,0.737902432574931,1.13251931550857,892,44,102,18,"mannelijk","rechts",NA,"102"
"701",9,"total",0,0,0,160,160,160,NA,NA,5.30500670000038,43,1.25419296760905,1.25419296760905,43,43,102,18,"mannelijk","rechts",NA,"102"
"702",9,"total",1,0,0,161,161,161,NA,NA,0.718070899994927,51,0.11,0.11,94,47,102,18,"mannelijk","rechts",NA,"102"
"703",9,"total",2,0,0,162,162,162,NA,NA,0.938750100001926,51,0.11,0.11,145,48,102,18,"mannelijk","rechts",NA,"102"
"704",9,"total",3,0,0,163,163,163,NA,NA,0.911736499998369,60,0.704343666117613,0.641404708432983,205,51,102,18,"mannelijk","rechts",NA,"102"
"705",9,"total",4,0,0,164,164,164,NA,NA,0.893818500000634,68,0.22,0.22,273,54,102,18,"mannelijk","rechts",NA,"102"
"706",9,"total",5,0,0,165,165,165,NA,NA,0.684157200012123,67,0.11,0.11,340,56,102,18,"mannelijk","rechts",NA,"102"
"707",9,"total",6,0,0,166,166,166,NA,NA,1.28566080000019,46,0.396610640301039,0.466690475583121,386,55,102,18,"mannelijk","rechts",NA,"102"
"708",9,"total",7,0,0,167,167,167,NA,NA,1.03388319999794,53,0.641404708432983,0.22,439,54,102,18,"mannelijk","rechts",NA,"102"
"709",9,"total",8,0,0,168,168,168,NA,NA,1.5634538000013,28,0.592368128784796,0.55,467,51,102,18,"mannelijk","rechts",NA,"102"
"710",9,"total",9,0,0,169,169,169,NA,NA,0.932301500011818,72,0.491934955049954,0.245967477524977,539,53,102,18,"mannelijk","rechts",NA,"102"
"711",9,"total",10,0,0,170,170,170,NA,NA,0.938798499992117,70,0.11,0.11,609,55,102,18,"mannelijk","rechts",NA,"102"
"712",9,"total",11,0,0,171,171,171,NA,NA,0.587726199999452,66,0.11,0.11,675,56,102,18,"mannelijk","rechts",NA,"102"
"713",9,"total",12,0,0,172,172,172,NA,NA,0.766752299998188,64,0.245967477524977,0.11,739,56,102,18,"mannelijk","rechts",NA,"102"
"714",9,"total",13,0,0,173,173,173,NA,NA,0.494936500006588,63,0.11,0.11,802,57,102,18,"mannelijk","rechts",NA,"102"
"715",9,"total",14,0,0,174,174,174,NA,NA,0.889084199996432,72,0.22,0.11,874,58,102,18,"mannelijk","rechts",NA,"102"
"716",9,"total",15,0,0,175,175,175,NA,NA,0.438565300006303,68,0.11,0.11,942,58,102,18,"mannelijk","rechts",NA,"102"
"717",9,"total",16,0,0,176,176,176,NA,NA,0.557691100009833,72,0.245967477524977,0,1014,59,102,18,"mannelijk","rechts",NA,"102"
"718",9,"total",17,0,0,177,177,177,NA,NA,0.173632100006216,75,0.11,0.11,1089,60,102,18,"mannelijk","rechts",NA,"102"
"719",9,"total",18,0,0,178,178,178,NA,NA,4.48716889999923,73,0.11,0.11,1162,61,102,18,"mannelijk","rechts",NA,"102"
"720",9,"total",19,0,0,179,179,179,NA,NA,1.15826259998721,70,0.11,0.11,1232,61,102,18,"mannelijk","rechts",NA,"102"
"721",1,"total",0,1,0,0,0,0,NA,NA,3.95485309998912,55,0.11,0.11,55,55,103,18,"vrouwelijk","rechts",NA,"103"
"722",1,"total",1,1,0,1,1,1,NA,NA,2.65146069999901,37,0.15556349186104,0.245967477524977,92,46,103,18,"vrouwelijk","rechts",NA,"103"
"723",1,"total",2,1,0,2,2,2,NA,NA,1.77431360000628,63,0.22,0.11,155,51,103,18,"vrouwelijk","rechts",NA,"103"
"724",1,"total",3,1,0,3,3,3,NA,NA,1.68762180001067,74,0.15556349186104,0.11,229,57,103,18,"vrouwelijk","rechts",NA,"103"
"725",1,"total",4,1,0,4,4,4,NA,NA,1.44360770001367,80,0.11,0.11,309,61,103,18,"vrouwelijk","rechts",NA,"103"
"726",1,"total",5,1,0,5,5,5,NA,NA,1.85286519999499,83,0.11,0.11,392,65,103,18,"vrouwelijk","rechts",NA,"103"
"727",1,"total",6,1,0,6,6,6,NA,NA,1.34822509999503,85,0.11,0.11,477,68,103,18,"vrouwelijk","rechts",NA,"103"
"728",1,"total",7,1,0,7,7,7,NA,NA,1.80149829998845,84,0.11,0.11,561,70,103,18,"vrouwelijk","rechts",NA,"103"
"729",1,"total",8,1,0,8,8,8,NA,NA,2.30817489999754,81,0.22,0.11,642,71,103,18,"vrouwelijk","rechts",NA,"103"
"730",1,"total",9,1,0,9,9,9,NA,NA,1.90146930000628,84,0.15556349186104,0.11,726,72,103,18,"vrouwelijk","rechts",NA,"103"
"731",1,"total",10,1,0,10,10,10,NA,NA,1.65811319999921,82,0.11,0.11,808,73,103,18,"vrouwelijk","rechts",NA,"103"
"732",1,"total",11,1,0,11,11,11,NA,NA,2.19629659999919,83,0.22,0.11,891,74,103,18,"vrouwelijk","rechts",NA,"103"
"733",1,"total",12,1,0,12,12,12,NA,NA,2.04563570000755,79,0.11,0.15556349186104,970,74,103,18,"vrouwelijk","rechts",NA,"103"
"734",1,"total",13,1,0,13,13,13,NA,NA,1.45337419999123,80,0.396610640301039,0.15556349186104,1050,75,103,18,"vrouwelijk","rechts",NA,"103"
"735",1,"total",14,1,0,14,14,14,NA,NA,1.17054869999993,74,0.15556349186104,0.22,1124,74,103,18,"vrouwelijk","rechts",NA,"103"
"736",1,"total",15,1,0,15,15,15,NA,NA,2.09851109998999,78,0.44,0.11,1202,75,103,18,"vrouwelijk","rechts",NA,"103"
"737",1,"total",16,1,0,16,16,16,NA,NA,3.34497439999541,72,0.15556349186104,0.245967477524977,1274,74,103,18,"vrouwelijk","rechts",NA,"103"
"738",1,"total",17,1,0,17,17,17,NA,NA,4.79315950001183,71,0.592368128784796,0.245967477524977,1345,74,103,18,"vrouwelijk","rechts",NA,"103"
"739",1,"total",18,1,0,18,18,18,NA,NA,1.76902919998975,76,0.44,0.15556349186104,1421,74,103,18,"vrouwelijk","rechts",NA,"103"
"740",1,"total",19,1,0,19,19,19,NA,NA,3.26684299999033,79,0.245967477524977,0.11,1500,75,103,18,"vrouwelijk","rechts",NA,"103"
"741",2,"total",0,0,0,20,20,20,NA,NA,4.27953060000436,56,0.11,0.11,56,56,103,18,"vrouwelijk","rechts",NA,"103"
"742",2,"total",1,0,0,21,21,21,NA,NA,1.40840190000017,70,0.33,0.22,126,63,103,18,"vrouwelijk","rechts",NA,"103"
"743",2,"total",2,0,0,22,22,22,NA,NA,1.93388789999881,63,0.15556349186104,0.15556349186104,189,63,103,18,"vrouwelijk","rechts",NA,"103"
"744",2,"total",3,0,0,23,23,23,NA,NA,1.78766679999535,71,0.245967477524977,0.11,260,65,103,18,"vrouwelijk","rechts",NA,"103"
"745",2,"total",4,0,0,24,24,24,NA,NA,1.33525600000576,67,0.15556349186104,0.15556349186104,327,65,103,18,"vrouwelijk","rechts",NA,"103"
"746",2,"total",5,0,0,25,25,25,NA,NA,1.73690200000419,71,0.15556349186104,0.22,398,66,103,18,"vrouwelijk","rechts",NA,"103"
"747",2,"total",6,0,0,26,26,26,NA,NA,1.34591479999654,70,0.15556349186104,0.347850542618522,468,66,103,18,"vrouwelijk","rechts",NA,"103"
"748",2,"total",7,0,0,27,27,27,NA,NA,1.13891560000775,67,0.11,0.453541618817943,535,66,103,18,"vrouwelijk","rechts",NA,"103"
"749",2,"total",8,0,0,28,28,28,NA,NA,1.58088500000304,71,0.22,0.245967477524977,606,67,103,18,"vrouwelijk","rechts",NA,"103"
"750",2,"total",9,0,0,29,29,29,NA,NA,1.90946869998879,71,0.15556349186104,0.11,677,67,103,18,"vrouwelijk","rechts",NA,"103"
"751",2,"total",10,0,0,30,30,30,NA,NA,2.7128895999922,70,0.11,0.15556349186104,747,67,103,18,"vrouwelijk","rechts",NA,"103"
"752",2,"total",11,0,0,31,31,31,NA,NA,2.01739320000343,64,0.311126983722081,0.15556349186104,811,67,103,18,"vrouwelijk","rechts",NA,"103"
"753",2,"total",12,0,0,32,32,32,NA,NA,1.83401320000121,65,0.396610640301039,0.245967477524977,876,67,103,18,"vrouwelijk","rechts",NA,"103"
"754",2,"total",13,0,0,33,33,33,NA,NA,2.56984529999318,54,0.592368128784796,0.44,930,66,103,18,"vrouwelijk","rechts",NA,"103"
"755",2,"total",14,0,0,34,34,34,NA,NA,1.19335370000044,69,0.33,0.11,999,66,103,18,"vrouwelijk","rechts",NA,"103"
"756",2,"total",15,0,0,35,35,35,NA,NA,1.39554729999509,66,0.15556349186104,0.11,1065,66,103,18,"vrouwelijk","rechts",NA,"103"
"757",2,"total",16,0,0,36,36,36,NA,NA,2.15260610000405,68,0.311126983722081,0.11,1133,66,103,18,"vrouwelijk","rechts",NA,"103"
"758",2,"total",17,0,0,37,37,37,NA,NA,3.02021940000122,66,0.11,0.15556349186104,1199,66,103,18,"vrouwelijk","rechts",NA,"103"
"759",2,"total",18,0,0,38,38,38,NA,NA,1.87957469999674,70,0.22,0.15556349186104,1269,66,103,18,"vrouwelijk","rechts",NA,"103"
"760",2,"total",19,0,0,39,39,39,NA,NA,0.87503850000212,69,0.11,0.11,1338,66,103,18,"vrouwelijk","rechts",NA,"103"
"761",3,"mean",0,0,0,40,40,40,NA,NA,5.34129869999015,14,0.55,0.55,14,14,103,18,"vrouwelijk","rechts",NA,"103"
"762",3,"mean",1,0,0,41,41,41,NA,NA,2.14678450000065,45,1.03773792452623,0.560892146495206,59,29,103,18,"vrouwelijk","rechts",NA,"103"
"763",3,"mean",2,0,0,42,42,42,NA,NA,1.32075289999193,49,0.11,0.453541618817943,108,36,103,18,"vrouwelijk","rechts",NA,"103"
"764",3,"mean",3,0,0,43,43,43,NA,NA,1.56142450000334,52,0.11,0.11,160,40,103,18,"vrouwelijk","rechts",NA,"103"
"765",3,"mean",4,0,0,44,44,44,NA,NA,1.47416769999836,53,0.11,0.11,213,42,103,18,"vrouwelijk","rechts",NA,"103"
"766",3,"mean",5,0,0,45,45,45,NA,NA,1.35390120001102,51,0.11,0.11,264,44,103,18,"vrouwelijk","rechts",NA,"103"
"767",3,"mean",6,0,0,46,46,46,NA,NA,1.98923759999161,52,0.15556349186104,0.11,316,45,103,18,"vrouwelijk","rechts",NA,"103"
"768",3,"mean",7,0,0,47,47,47,NA,NA,0.978090799995698,49,0.11,0.15556349186104,365,45,103,18,"vrouwelijk","rechts",NA,"103"
"769",3,"mean",8,0,0,48,48,48,NA,NA,1.00522960000671,52,0.15556349186104,0.22,417,46,103,18,"vrouwelijk","rechts",NA,"103"
"770",3,"mean",9,0,0,49,49,49,NA,NA,2.68376840000565,52,0.11,0.245967477524977,469,46,103,18,"vrouwelijk","rechts",NA,"103"
"771",3,"mean",10,0,0,50,50,50,NA,NA,1.47058449999895,51,0.11,0.15556349186104,520,47,103,18,"vrouwelijk","rechts",NA,"103"
"772",3,"mean",11,0,0,51,51,51,NA,NA,0.89455270000326,48,0.245967477524977,0.22,568,47,103,18,"vrouwelijk","rechts",NA,"103"
"773",3,"mean",12,0,0,52,52,52,NA,NA,1.53893749999406,47,0.396610640301039,0.22,615,47,103,18,"vrouwelijk","rechts",NA,"103"
"774",3,"mean",13,0,0,53,53,53,NA,NA,1.64164000000164,21,0.55,0.77,636,45,103,18,"vrouwelijk","rechts",NA,"103"
"775",3,"mean",14,0,0,54,54,54,NA,NA,3.74602600000799,55,0.83773504164503,0.33,691,46,103,18,"vrouwelijk","rechts",NA,"103"
"776",3,"mean",15,0,0,55,55,55,NA,NA,0.73061620000226,54,0.11,0.11,745,46,103,18,"vrouwelijk","rechts",NA,"103"
"777",3,"mean",16,0,0,56,56,56,NA,NA,0.698416300001554,59,0.15556349186104,0.11,804,47,103,18,"vrouwelijk","rechts",NA,"103"
"778",3,"mean",17,0,0,57,57,57,NA,NA,0.841074000010849,55,0.11,0.11,859,47,103,18,"vrouwelijk","rechts",NA,"103"
"779",3,"mean",18,0,0,58,58,58,NA,NA,2.79137629999605,62,0.15556349186104,0.11,921,48,103,18,"vrouwelijk","rechts",NA,"103"
"780",3,"mean",19,0,0,59,59,59,NA,NA,1.44883709998976,64,0.11,0.11,985,49,103,18,"vrouwelijk","rechts",NA,"103"
"781",4,"total",0,0,0,60,60,60,NA,NA,3.1801037999976,47,0.245967477524977,0.245967477524977,47,47,103,18,"vrouwelijk","rechts",NA,"103"
"782",4,"total",1,0,0,61,61,61,NA,NA,1.79051429999527,45,0.15556349186104,0.15556349186104,92,46,103,18,"vrouwelijk","rechts",NA,"103"
"783",4,"total",2,0,0,62,62,62,NA,NA,1.09384180000052,50,0.11,0.11,142,47,103,18,"vrouwelijk","rechts",NA,"103"
"784",4,"total",3,0,0,63,63,63,NA,NA,1.14582989999326,51,0.11,0.11,193,48,103,18,"vrouwelijk","rechts",NA,"103"
"785",4,"total",4,0,0,64,64,64,NA,NA,1.01735270000063,54,0.11,0.11,247,49,103,18,"vrouwelijk","rechts",NA,"103"
"786",4,"total",5,0,0,65,65,65,NA,NA,1.38034490001155,53,0.11,0.11,300,50,103,18,"vrouwelijk","rechts",NA,"103"
"787",4,"total",6,0,0,66,66,66,NA,NA,0.846190500000375,55,0.15556349186104,0.11,355,50,103,18,"vrouwelijk","rechts",NA,"103"
"788",4,"total",7,0,0,67,67,67,NA,NA,0.676707499995246,53,0.11,0.11,408,51,103,18,"vrouwelijk","rechts",NA,"103"
"789",4,"total",8,0,0,68,68,68,NA,NA,2.51764250000997,55,0.15556349186104,0.11,463,51,103,18,"vrouwelijk","rechts",NA,"103"
"790",4,"total",9,0,0,69,69,69,NA,NA,0.968444099999033,56,0.11,0.11,519,51,103,18,"vrouwelijk","rechts",NA,"103"
"791",4,"total",10,0,0,70,70,70,NA,NA,0.950119699991774,57,0.11,0.11,576,52,103,18,"vrouwelijk","rechts",NA,"103"
"792",4,"total",11,0,0,71,71,71,NA,NA,0.904160600010073,55,0.15556349186104,0.11,631,52,103,18,"vrouwelijk","rechts",NA,"103"
"793",4,"total",12,0,0,72,72,72,NA,NA,0.773435199997039,57,0.11,0.11,688,52,103,18,"vrouwelijk","rechts",NA,"103"
"794",4,"total",13,0,0,73,73,73,NA,NA,1.15287530000205,55,0.22,0.11,743,53,103,18,"vrouwelijk","rechts",NA,"103"
"795",4,"total",14,0,0,74,74,74,NA,NA,0.902856100001372,55,0.33,0.11,798,53,103,18,"vrouwelijk","rechts",NA,"103"
"796",4,"total",15,0,0,75,75,75,NA,NA,0.845906300004572,52,0.11,0.22,850,53,103,18,"vrouwelijk","rechts",NA,"103"
"797",4,"total",16,0,0,76,76,76,NA,NA,3.85442829999374,52,0.155563491861041,0.15556349186104,902,53,103,18,"vrouwelijk","rechts",NA,"103"
"798",4,"total",17,0,0,77,77,77,NA,NA,4.86796059999324,53,0.15556349186104,0.22,955,53,103,18,"vrouwelijk","rechts",NA,"103"
"799",4,"total",18,0,0,78,78,78,NA,NA,1.70284349999565,55,0.11,0.22,1010,53,103,18,"vrouwelijk","rechts",NA,"103"
"800",4,"total",19,0,0,79,79,79,NA,NA,1.83197410000139,49,0.22,0.245967477524977,1059,52,103,18,"vrouwelijk","rechts",NA,"103"
"801",5,"mean",0,0,0,80,80,80,NA,NA,5.72042470000451,39,0.15556349186104,0.15556349186104,39,39,103,18,"vrouwelijk","rechts",NA,"103"
"802",5,"mean",1,0,0,81,81,81,NA,NA,1.9840133000107,42,0.311126983722081,0.15556349186104,81,40,103,18,"vrouwelijk","rechts",NA,"103"
"803",5,"mean",2,0,0,82,82,82,NA,NA,1.30873220000649,38,0.11,0.11,119,39,103,18,"vrouwelijk","rechts",NA,"103"
"804",5,"mean",3,0,0,83,83,83,NA,NA,1.09781089999888,36,0.15556349186104,0.11,155,38,103,18,"vrouwelijk","rechts",NA,"103"
"805",5,"mean",4,0,0,84,84,84,NA,NA,1.28731200000038,60,0.347850542618522,0.33,215,43,103,18,"vrouwelijk","rechts",NA,"103"
"806",5,"mean",5,0,0,85,85,85,NA,NA,1.18378020000819,56,0.11,0.11,271,45,103,18,"vrouwelijk","rechts",NA,"103"
"807",5,"mean",6,0,0,86,86,86,NA,NA,1.07532639999408,45,0.11,0.22,316,45,103,18,"vrouwelijk","rechts",NA,"103"
"808",5,"mean",7,0,0,87,87,87,NA,NA,0.466710099994089,46,0.15556349186104,0.15556349186104,362,45,103,18,"vrouwelijk","rechts",NA,"103"
"809",5,"mean",8,0,0,88,88,88,NA,NA,0.930684600010864,49,0.11,0.11,411,45,103,18,"vrouwelijk","rechts",NA,"103"
"810",5,"mean",9,0,0,89,89,89,NA,NA,0.676764600008028,56,0.15556349186104,0.11,467,46,103,18,"vrouwelijk","rechts",NA,"103"
"811",5,"mean",10,0,0,90,90,90,NA,NA,1.53968289999466,49,0.11,0.22,516,46,103,18,"vrouwelijk","rechts",NA,"103"
"812",5,"mean",11,0,0,91,91,91,NA,NA,1.20612230000552,46,0.15556349186104,0.15556349186104,562,46,103,18,"vrouwelijk","rechts",NA,"103"
"813",5,"mean",12,0,0,92,92,92,NA,NA,1.60533360000409,41,0.15556349186104,0.22,603,46,103,18,"vrouwelijk","rechts",NA,"103"
"814",5,"mean",13,0,0,93,93,93,NA,NA,1.76690409998992,29,0.396610640301039,0.22,632,45,103,18,"vrouwelijk","rechts",NA,"103"
"815",5,"mean",14,0,0,94,94,94,NA,NA,2.63368410000112,34,0.592368128784796,0.311126983722081,666,44,103,18,"vrouwelijk","rechts",NA,"103"
"816",5,"mean",15,0,0,95,95,95,NA,NA,2.19994420000876,74,1.08894444302728,1.08337435819757,740,46,103,18,"vrouwelijk","rechts",NA,"103"
"817",5,"mean",16,0,0,96,96,96,NA,NA,2.81361159999506,80,0.11,0.11,820,48,103,18,"vrouwelijk","rechts",NA,"103"
